time,seconds_elapsed,z,y,x
1790521809697197600,0.048197509765625,0.5672480988025665,-0.40487142497897144,0.6633196782000362
1790521809707200800,0.05820068359375,0.869719472014904,-0.19966507873237133,0.7104925674591213
1790521809717202700,0.06820263671875,0.7288987964391708,0.03133797207176685,0.6710816174384207
1790521809727205600,0.07820556640625,0.1865899085819721,0.12626023530364036,0.5571361989045516
1790521809737208600,0.08820849609375,-0.1716319934248924,0.0592471387386322,0.37711986002661285
1790521809747211800,0.098211669921875,-0.05999006606042385,-0.03544599191248417,0.26647348303813484
1790521809757213700,0.108213623046875,0.14447393738627434,-0.13253566231131553,0.19164757556403056
1790521809767216600,0.118216552734375,0.3561795825242996,-0.23064532340764998,0.1637492225521244
1790521809777219800,0.1282197265625,0.5639923118770123,-0.37260581666827197,0.17401883376250044
1790521809787222500,0.138222412109375,0.5575497116088867,-0.4170084374964237,0.04032108256898354
1790521809797224700,0.148224609375,0.2434586277514696,-0.4673994850844145,-0.0528507293995237
1790521809807227600,0.1582275390625,0.2622258720636368,-0.5344762945353985,-0.07452210222193971
1790521809817230600,0.168230712890625,0.6222644681036472,-0.48414837531149385,-0.2641676172485575
1790521809827233500,0.178233642578125,0.5334697478413581,-0.3802712367296219,-0.13743538965214974
1790521809837235700,0.188235595703125,0.5933335571736097,-0.24332126510739324,0.017391992169898004
1790521809847238700,0.19823876953125,0.5759551368713378,-0.19586568644940852,-0.027944986898917702
1790521809857241600,0.20824169921875,0.5033388134717941,-0.2550695705682039,0.15803365791691465
1790521809867243800,0.218243896484375,0.488711737704277,-0.34018764814436436,-0.0701080303730443
1790521809877246700,0.228246826171875,0.1279845748782158,-0.46590895426571366,-0.19101262039504943
1790521809887249700,0.238249755859375,-0.12931143956780433,-0.6376257033646107,0.4538304670024663
1790521809897252600,0.248252685546875,0.3298129691243171,-0.5261462730854749,0.5883597873490304
1790521809907254800,0.2582548828125,0.8188508700430392,-0.34478082115352154,0.2965790089718066
1790521809917257700,0.2682578125,0.8290355794489384,-0.1144768585294485,0.17687789472173898
1790521809927260700,0.2782607421875,0.6123796184271574,-0.10463993964791297,0.32505952751953154
1790521809937263600,0.288263671875,0.5304980385541915,0.023968904608488082,0.40435375778041777
1790521809947265500,0.298265625,0.29841654486358166,0.03164309249818325,0.4229492987874895
1790521809957268700,0.308268798828125,-0.07379764213860035,-0.22152444384098052,0.38173656004182993
1790521809967271700,0.318271728515625,-0.12584756284952162,-0.286364288020134,0.19386698691286144
1790521809977274600,0.328274658203125,0.020237901386618615,-0.1779851618438959,0.10677949982671998
1790521809987276500,0.338276611328125,0.018803484669327734,-0.08719546837210655,0.020847347655007613
1790521809997279700,0.34827978515625,-0.0802390733629465,-0.190685653463006,0.028027249221736564
1790521810007282700,0.35828271484375,-0.02231295409500599,-0.710296971821785,0.41880511165484785
1790521810017284600,0.36828466796875,-0.10635141974091529,-0.8109814518421888,0.27603341160919515
1790521810027287800,0.378287841796875,-0.124850953027606,-0.9187713799536228,0.2700751242592931
1790521810037290500,0.38829052734375,-0.09526888471245765,-0.6264671804904938,0.31918848006166517
1790521810047293700,0.398293701171875,0.2579232064336538,-0.1428103880882263,0.41945477120261637
1790521810057295600,0.408295654296875,0.5860036526769399,0.05867372276484966,0.3866236744962632
1790521810067298600,0.418298583984375,0.7837707888334989,0.04493161313831806,0.12181492806626483
1790521810077301800,0.4283017578125,0.8857879787623881,-0.08992693916261196,-0.08661310190688819
1790521810087304700,0.4383046875,0.9970271705448627,-0.02792962493300438,-0.09505536982594058
1790521810097306600,0.448306640625,0.7540595411807298,0.05947685584127903,-0.38106092580258843
1790521810107309600,0.4583095703125,0.49126259123086924,-0.11421849985420703,-0.3478782026469707
1790521810117312800,0.468312744140625,0.7504273221582174,-0.3569686870753765,-0.08202772861169651
1790521810127315700,0.478315673828125,1.22642804684937,-0.5249620317369699,-0.16911811090782283
1790521810137317600,0.488317626953125,1.3509750484943388,-0.46335050195455546,-0.30350847944142295
1790521810147320800,0.49832080078125,1.4987211394190787,-0.3892015621602535,-0.22384916046150027
1790521810157323500,0.508323486328125,0.8997861089766025,-0.37549627741277214,-0.035900165420770645
1790521810167326700,0.51832666015625,0.848005068334937,-0.06467793161571025,0.10136179476007819
1790521810177328600,0.52832861328125,1.0178817425251006,-0.010972060391306876,0.43676739625968036
1790521810187331600,0.53833154296875,1.156585279816389,-0.12171148595809936,0.06446111052725463
1790521810197334800,0.548334716796875,0.5083610255479812,0.07066402028799057,-0.5077784764196723
1790521810207336700,0.558336669921875,-0.40552024427652356,-0.14989888504445553,-0.5377998129349202
1790521810217339600,0.568339599609375,-1.3347551505774258,-0.5328957473456859,-0.32660653776582327
1790521810227342600,0.578342529296875,-1.7015373756587504,-0.5633662889331579,-0.030410628093779084
1790521810237345800,0.588345703125,-2.481364395302534,-0.4456587779194116,0.1433670173239894
1790521810247347700,0.59834765625,-2.281498825562,-0.6232488029658794,-0.24053011828521265
1790521810257350700,0.6083505859375,-0.30076515381634233,-0.10079495465755461,-0.37515462436825037
1790521810267353900,0.618353759765625,0.9547884497523307,-0.1508271058052778,1.3315201141789554
1790521810277356500,0.6283564453125,-1.608192737007141,-1.600534915730357,2.0487593063540754
1790521810287358700,0.638358642578125,-0.04158464079797268,-1.2372978159099817,0.28772821505079044
1790521810297361700,0.648361572265625,1.771761250963807,-0.3982078754365444,0.591170387790352
1790521810307364600,0.658364501953125,1.6502993558526038,0.519202737557888,0.9553319820445031
1790521810317367600,0.668367431640625,2.379907761865854,0.8874790005892514,0.07060909349666908
1790521810327369700,0.67836962890625,2.7787942672163246,0.9491828848302364,0.39369733920954164
1790521810337372700,0.68837255859375,2.9102286902874708,0.895098243421316,0.7854927172552794
1790521810347375600,0.698375732421875,3.2805110324442386,0.5976718786388635,0.6078641137640923
1790521810357378800,0.70837890625,3.4130770898938176,0.0898947904586792,0.6386642526321112
1790521810367380700,0.718380615234375,2.707818696761131,0.37130934711694713,0.3345801835261285
1790521810377383700,0.7283837890625,0.32899814561009405,-0.29233284103572366,0.515824712492153
1790521810387386600,0.73838671875,0.15542670855522156,-1.2423966003537177,-0.722811000958085
1790521810397388800,0.748388916015625,-0.8484335228800773,-0.8813760075390339,-1.3482082141295075
1790521810407391700,0.758391845703125,-0.9172375945150851,-0.27518238427042957,-1.235666561446339
1790521810417394200,0.768394287109375,-0.4836614685773849,-0.06023556525409221,-1.2925630454055965
1790521810427397400,0.7783974609375,-0.8929670766115189,-0.2730254984974861,-1.4358733458399773
1790521810437399000,0.78839892578125,-0.8909574903547763,-0.4783300444215536,-1.17645946245715
1790521810447402200,0.79840234375,-0.6327712490707635,-0.5371621726185083,-0.9993117012854665
1790521810457405200,0.8084052734375,-0.161328626075387,-0.1648001015782356,-0.9185713273368775
1790521810467408100,0.818408203125,0.28385785815715786,0.32461189334988594,-0.6707492436788975
1790521810477410300,0.828410400390625,0.7059399456560611,0.4778080663740635,-0.33224059813003987
1790521810487413200,0.838413330078125,0.9567921907901763,0.38289106383919713,-0.011635675399191676
1790521810497416200,0.848416259765625,0.7963011845827103,0.16242402009665965,0.1718719944595359
1790521810507419100,0.858419189453125,0.3993196360707283,-0.1973690767496824,0.40177616237737235
1790521810517421300,0.86842138671875,0.258055308380723,-0.5835492452621459,0.5486398444443941
1790521810527424000,0.878424072265625,0.1154746373951435,-0.7784615765094757,0.7388027161423116
1790521810537427200,0.88842724609375,0.17022212662696837,-0.8276777350991964,0.9077698012068867
1790521810547430400,0.898430419921875,0.4848913026332855,-0.637899259608984,0.6836591402649879
1790521810557432000,0.90843212890625,0.7173433832019567,-0.4603448903977871,0.535069145862013
1790521810567435300,0.918435302734375,1.0843792907834053,-0.3803098151743412,0.29408059801850467
1790521810577438200,0.928438232421875,1.175602699497342,-0.4915273796468973,0.10413984463866799
1790521810587440000,0.938440185546875,0.8102011151194572,-0.5915548570632935,-0.0894931508552283
1790521810597443000,0.948443115234375,0.430859268194437,-0.5006774853080511,-0.2241098937569186
1790521810607446300,0.9584462890625,0.11056465352177619,-0.31855916918218136,-0.2838452909365296
1790521810617449200,0.96844921875,0.09270634074807166,-0.4047176957219839,-0.40002153726238754
1790521810627451100,0.978451171875,0.27455110062956806,-0.7486182269096374,-0.5457530734943226
1790521810637454300,0.988454345703125,0.2869458873003721,-0.9066998338878154,-0.4874658658290282
1790521810647457000,0.99845703125,0.19703648379445074,-0.8428104223012923,-0.40914924842864275
1790521810657460200,1.008460205078125,-0.018052374041080475,-0.7583633758544921,-0.3871080239471048
1790521810667462100,1.018462158203125,-0.1481909120827913,-0.8182061423987149,-0.4620308707233518
1790521810677465000,1.028465087890625,-0.19622282932400703,-0.9237170196622609,-0.3934248058784753
1790521810687468300,1.03846826171875,-0.24003975921869278,-0.8941320287376642,-0.19343553669303654
1790521810697471200,1.04847119140625,-0.2937526447057724,-0.837223562079668,-0.07195672697965055
1790521810707473200,1.05847314453125,-0.280232068875432,-0.5609855312764644,-0.03371584365162998
1790521810717476000,1.06847607421875,-0.1154091709434986,-0.17293781532645225,0.055129437754116946
1790521810727479300,1.078479248046875,0.14016834914684295,0.024497312396764753,0.10836834905389696
1790521810737482200,1.088482177734375,0.3646785308003425,0.03869651814103126,0.12045259020449593
1790521810747484200,1.098484130859375,0.611399375218153,0.00008066402077674865,-0.012852047185320407
1790521810757487400,1.1084873046875,0.943683702892065,-0.12473697125911712,-0.19659506016988307
1790521810767490000,1.118489990234375,0.6227449450969695,-0.4575128818422556,-0.1825598310819827
1790521810777493200,1.1284931640625,0.24152210673093794,-0.8224158690482377,0.03915569661799818
1790521810787495200,1.1384951171875,0.1054103394985199,-0.8314742047727107,0.08612785740690306
1790521810797498000,1.148498046875,0.19517185896635053,-0.559348869985342,-0.14614053715793415
1790521810807501300,1.158501220703125,0.2919341971069574,-0.28146716362833973,-0.5239698788944631
1790521810817504300,1.168504150390625,0.5023118085116147,-0.1948462802737951,-0.7217687984287738
1790521810827506200,1.178506103515625,0.6825239987552165,-0.1707528725028038,-0.5293895293230191
1790521810837509000,1.188509033203125,0.6283610314130783,-0.06037292789816856,-0.14404648748813195
1790521810847512300,1.19851220703125,0.6146680216252803,0.012981062126159668,0.1543380000030622
1790521810857515000,1.208514892578125,0.6939800432711839,0.00027881694138050077,0.21692343458523972
1790521810867517200,1.21851708984375,0.723965431690216,-0.26984453037381173,-0.025328009333554655
1790521810877520400,1.228520263671875,0.35444472155570983,-0.6303554201006889,-0.4090948513602838
1790521810887523000,1.238523193359375,-0.24261516266465186,-0.8533318163156509,-0.651995370304957
1790521810897525200,1.248525146484375,-0.7625666727632284,-0.9401432538062333,-0.5767586352739483
1790521810907528200,1.258528076171875,-0.9697124626398086,-0.8341787875562906,-0.1635318534743972
1790521810917531100,1.26853125,-0.9120803578823804,-0.7423796247810125,0.21558805779563261
1790521810927534000,1.2785341796875,-0.7352969730436801,-0.743117291405797,0.28048505725581196
1790521810937536300,1.288536376953125,-0.5633540139734745,-0.6907955680161714,0.10866276542320846
1790521810947539200,1.298539306640625,-0.25714228518903254,-0.46721126903593535,-0.05546630502566695
1790521810957542100,1.308542236328125,0.09655950904488562,-0.4461602977007627,-0.01878790350770578
1790521810967545300,1.31854541015625,0.2503986561477184,-0.5503250210523605,0.0887859341676347
1790521810977547300,1.32854736328125,0.29118951621949674,-0.4488181187331676,0.15072567299110814
1790521810987550200,1.33855029296875,0.4179577010452747,-0.22651509173512457,0.129970853324607
1790521810997553200,1.34855322265625,0.6877163067013025,-0.16707856790423392,0.011536032683309166
1790521811007556000,1.35855615234375,0.862197844338417,-0.29754326916038987,-0.06691025724504143
1790521811017558000,1.36855810546875,0.8511316759228705,-0.3838824129641056,-0.09628476549042388
1790521811027561200,1.378561279296875,0.7143260812073946,-0.3503285184085369,-0.1390830015955493
1790521811037564200,1.388564208984375,0.5101712898403405,-0.37531449110507964,-0.1792539579370059
1790521811047567000,1.398567138671875,0.366971610173583,-0.49670215193629264,-0.1363788937360048
1790521811057569300,1.4085693359375,0.3284340819865465,-0.49399873819649215,-0.12932492010388522
1790521811067572200,1.418572265625,0.3756441614508629,-0.534012768676877,-0.15199030436575411
1790521811077575200,1.4285751953125,0.2971796965450048,-0.4920014268994331,-0.18506755785290152
1790521811087578400,1.438578369140625,0.29994097795188424,-0.3427385016709566,-0.16824861633060498
1790521811097580300,1.448580322265625,0.44757542519569393,-0.18360767790079116,-0.10796681904830038
1790521811107583200,1.458583251953125,0.470908369988203,-0.048158758491277695,-0.02467807579115033
1790521811117586200,1.468586181640625,0.4669558329701423,0.12017185530066489,0.056409851219784465
1790521811127589000,1.478589111328125,0.49175008248686786,0.22280454677939412,0.030269995780382305
1790521811137591000,1.488591064453125,0.5135340442717075,0.16106968287825582,-0.03771380898030475
1790521811147594200,1.49859423828125,0.398411873576045,0.010863923841714859,-0.11494990113498642
1790521811157597200,1.50859716796875,0.1384182906091213,-0.1326893915683031,-0.14217042795056475
1790521811167600000,1.51860009765625,-0.08439268591105938,-0.15768237852752207,-0.13437436724686994
1790521811177602300,1.528602294921875,-0.07287234398722649,-0.13355273039937018,-0.08357545124404132
1790521811187605200,1.538605224609375,-0.04417524181306362,-0.2126245135486126,-0.06281674085371196
1790521811197608200,1.548608154296875,-0.07069207733869552,-0.2497422380656004,-0.03580647752163932
1790521811207611400,1.558611328125,0.03979249668419361,-0.20620880128741262,-0.04558625938845798
1790521811217613300,1.56861328125,0.20379121875166892,-0.2789566421121359,-0.07923358611483126
1790521811227616300,1.5786162109375,0.16456395473480223,-0.37805356068015095,-0.12843772547319532
1790521811237619200,1.588619140625,0.053128363597393036,-0.22649521799087524,-0.20528290034784002
1790521811247621400,1.598621337890625,0.038977088648080825,0.04822948563992977,-0.20405039941081776
1790521811257624000,1.6086240234375,0.19890870740711689,0.304189867568016,-0.10090636087646707
1790521811267627300,1.618627197265625,0.4703700253278017,0.5888561194986105,-0.02792531408406794
1790521811277630200,1.628630126953125,0.8497995505362749,0.8738660703003406,-0.016385573340021074
1790521811287632100,1.638632080078125,1.2172826173633335,1.0102759436964988,-0.17115372665496542
1790521811297635300,1.64863525390625,1.196237491247058,0.9246405642479658,-0.36550683485064656
1790521811307638300,1.65863818359375,0.8133867594182491,0.7543214069873094,-0.4114559544684365
1790521811317641200,1.66864111328125,0.3496703467607498,0.5404810879081487,-0.267852187512815
1790521811327643100,1.67864306640625,0.04450666572451591,0.32445407243967056,-0.016870580377988515
1790521811337646300,1.688646240234375,-0.09685527712106703,0.13363397894203663,0.1378844211944379
1790521811347649000,1.69864892578125,-0.0036947628647089003,-0.00022328736186027524,0.030967293862160294
1790521811357652200,1.70865234375,0.08547872758209704,-0.09656710782945155,-0.29369055752130224
1790521811367654400,1.718654296875,0.16179741263091563,-0.3420855907201767,-0.4674653899274766
1790521811377657000,1.728656982421875,0.27153262959122654,-0.5835580130904913,-0.3963784680522978
1790521811387660300,1.738660400390625,0.3605202420771122,-0.5968593932121992,-0.28124531930489466
1790521811397663200,1.748663330078125,0.3468161263734102,-0.5434077890098095,-0.188891098196432
1790521811407665200,1.7586650390625,0.3283434810936451,-0.4500777634054422,-0.21600849343109874
1790521811417668400,1.76866845703125,0.4642027348697185,-0.2168669734239578,-0.2571782880841754
1790521811427671600,1.778671630859375,0.711755353936553,0.09256839358210563,-0.20229551856750622
1790521811437674500,1.788674560546875,0.9269143543988466,0.39213118587136264,-0.05836343297297135
1790521811447676400,1.798676513671875,1.0804454584658145,0.6066635788679122,0.11718692120574414
1790521811457679600,1.8086796875,1.1360966185390948,0.714847474732995,0.16837662662444636
1790521811467682300,1.818682373046875,1.059476320195198,0.7336234868735074,0.12089145654579624
1790521811477685500,1.828685546875,0.8764508260965347,0.6529752481877803,0.06105239806231111
1790521811487687400,1.8386875,0.5927648173749447,0.4667530038744211,0.07891082043386995
1790521811497690400,1.8486904296875,0.3277192117154598,0.3836024269789457,0.05300974218640476
1790521811507693600,1.858693603515625,-0.01911737292408943,0.3780219964981079,-0.06554735312769189
1790521811517696300,1.8686962890625,-0.11617957079410553,0.29758360117077826,-0.18304399786973372
1790521811527698400,1.878698486328125,-0.06468553040027618,0.17127017437517641,-0.27302396412752566
1790521811537701400,1.888701416015625,-0.0676478873372078,0.03847089269161224,-0.274406559326034
1790521811547704600,1.89870458984375,-0.09887246216237544,-0.022919103294610974,-0.27984049400826916
1790521811557707300,1.908707275390625,-0.26784312742352484,-0.14304361232221124,-0.28089122690390794
1790521811567709400,1.91870947265625,-0.33170448195934293,-0.2733972544193268,-0.3349622051136568
1790521811577712600,1.928712646484375,-0.28386896407306195,-0.4452630566000938,-0.37813974112626164
1790521811587715300,1.93871533203125,-0.2458247723609209,-0.6249871710658073,-0.38363651191163806
1790521811597718500,1.948718505859375,-0.22532149803638457,-0.7121259408146142,-0.3706717798657715
1790521811607720400,1.958720458984375,-0.1618903516113758,-0.7399819159895181,-0.3785964353851974
1790521811617723400,1.968723388671875,-0.030194062733650207,-0.8120359293311834,-0.3292981880025938
1790521811627726300,1.978726318359375,-0.046022330984473225,-0.8890934500485658,-0.2408928871829994
1790521811637729300,1.988729248046875,-0.024620646515488624,-0.8321136717200279,-0.21164522018767892
1790521811647731200,1.998731201171875,0.16053192273974418,-0.6594079115837812,-0.15221788431024177
1790521811657734400,2.008734375,0.3065571812212467,-0.5022264683157205,0.003691986385732889
1790521811667737600,2.018737548828125,0.44418461371362206,-0.3908095818787813,0.13010079984720796
1790521811677740300,2.028740234375,0.42562779728174205,-0.3375391794621944,0.2630186298765242
1790521811687742500,2.038742431640625,0.24815701470077037,-0.320465879586339,0.34571485060062257
1790521811697745400,2.048745361328125,0.017373159605264664,-0.33545126727223396,0.38046584598626937
1790521811707748400,2.058748291015625,-0.2850999671727419,-0.42402679182589054,0.2985305631646886
1790521811717751600,2.06875146484375,-0.7041992394685744,-0.5350725068628788,0.2059041192524135
1790521811727753500,2.07875341796875,-0.8831360029488802,-0.5209650710552931,0.12534498362224547
1790521811737756400,2.08875634765625,-0.7835410717308521,-0.3646802843660116,0.04613225763235241
1790521811747759400,2.09875927734375,-0.5957412028372288,-0.22459902898073195,0.026176059263944625
1790521811757762600,2.108762451171875,-0.30006665015816686,-0.1248293257176876,-0.0173281879523769
1790521811767764200,2.11876416015625,-0.01890051530301571,-0.06580021364390849,-0.08791695104707031
1790521811777767400,2.128767333984375,0.14159399803578854,-0.10773556757569312,-0.1534666239960119
1790521811787770600,2.1387705078125,0.21091303345561027,-0.214367557823658,-0.224724847317487
1790521811797773300,2.148773193359375,0.14263444699943065,-0.37936055162549015,-0.2688481032149866
1790521811807775500,2.158775390625,0.008722235637903213,-0.5727583866566419,-0.23787465360667556
1790521811817778400,2.1687783203125,-0.10735212121605872,-0.6169096630722284,-0.21913816975895314
1790521811827781400,2.178781494140625,-0.00781914931833744,-0.593685439351201,-0.16453940481543539
1790521811837783300,2.188783203125,0.1313701256632805,-0.5714262612700463,-0.21330504315868018
1790521811847786500,2.198786376953125,0.23123335242867468,-0.5952239009648561,-0.27061507635489107
1790521811857789400,2.20878955078125,0.3186222975462675,-0.6097229664385319,-0.24049999714158474
1790521811867792400,2.21879248046875,0.29044249724447724,-0.5056102655351161,-0.1343196961838752
1790521811877794600,2.228794677734375,0.1953787797152996,-0.3284691532999277,0.020563370481319725
1790521811887797200,2.23879736328125,0.13259879067540167,-0.15966156964600084,0.1831730858758092
1790521811897800400,2.248800537109375,0.05027706581950187,-0.022933131819963454,0.2629065112715587
1790521811907803600,2.2588037109375,0.04791968903839588,0.08216156585812569,0.23676669236477463
1790521811917805300,2.268805419921875,0.1123807630330324,0.1110913077443838,0.1345460157530382
1790521811927808500,2.27880859375,0.11246025801002979,0.062008420145511625,0.074165233341977
1790521811937811500,2.2888115234375,-0.0449906498491764,-0.025579262414574623,0.06826594617031514
1790521811947814400,2.298814453125,-0.20089257470071314,-0.0741483552724123,0.06091470662467181
1790521811957816300,2.30881640625,-0.29591362213194367,-0.09850245980620384,0.01469378432817757
1790521811967819500,2.318819580078125,-0.3528384554028511,-0.090182375228405,-0.008823577120527625
1790521811977822200,2.328822265625,-0.25287819800376893,-0.09486965626180172,-0.05805175494160503
1790521811987825400,2.338825439453125,-0.03443067739009857,-0.09249825095534324,-0.13668847114183008
1790521811997827600,2.34882763671875,0.2584948688417673,-0.08424597091674804,-0.19184443157669157
1790521812007830300,2.358830322265625,0.47758594805598253,-0.04355214147865772,-0.19890308138392865
1790521812017833500,2.36883349609375,0.5892161849826574,0.09457681079506873,-0.21646653939690438
1790521812027836400,2.37883642578125,0.6228174258112907,0.13254326109588146,-0.21513149140086024
1790521812037838300,2.38883837890625,0.6115723936975002,-0.03588555237352848,-0.23075061041302977
1790521812047841300,2.39884130859375,0.5264291816800832,-0.020783260309696197,-0.2802596510021016
1790521812057844500,2.408844482421875,0.3979395798891783,-0.10943243462145327,-0.2611282495526597
1790521812067847400,2.418847412109375,0.2985083148002624,-0.1841454380393028,-0.09292473273910581
1790521812077849300,2.428849365234375,0.009702478846907616,-0.1410726045101881,0.14201269837189465
1790521812087852500,2.4388525390625,-0.14996259793043135,-0.06579319938123226,0.10360570122934877
1790521812097855200,2.448855224609375,-0.2204401557356119,0.024104513686895368,-0.07513353038486092
1790521812107858400,2.4588583984375,-0.05829202997088432,0.00673252312541008,-0.14523103936389087
1790521812117860400,2.4688603515625,0.05253799648880958,-0.09150982443988323,-0.028868805479258297
1790521812127863300,2.47886328125,0.5580348647773266,0.08382745324373245,0.2890613450843841
1790521812137866500,2.488866455078125,0.439742247352004,0.25302549751996994,0.578573539208807
1790521812147869400,2.498869384765625,-0.16849077278971672,0.08136895417571068,0.4528839799325913
1790521812157871400,2.508871337890625,-0.3101923228532076,-0.2040840642184019,0.22646708787493405
1790521812167874300,2.518874267578125,-0.2897831565529108,-0.2611532743960619,0.11202734648548066
1790521812177877500,2.52887744140625,-0.36046295893192287,-0.0368780705422163,-0.040384873086772854
1790521812187880400,2.53888037109375,-0.4982417825937271,0.40193420248329637,-0.10614738506879656
1790521812197882400,2.54888232421875,-0.3042950815081596,0.6141074651330709,-0.021807415725663304
1790521812207885600,2.558885498046875,0.010765139642357825,0.44534021348953245,0.10771284428723156
1790521812217888300,2.56888818359375,0.16113690289556978,0.43778468354344363,0.25158961949795483
1790521812227891500,2.578891357421875,0.10193827947378158,0.5415168606966734,0.08460559800937771
1790521812237893400,2.588893310546875,0.12472294273376464,0.5214636682271957,0.08848032055087388
1790521812247896300,2.598896240234375,0.11161153222620486,0.40731998717486856,0.026102299907989797
1790521812257899500,2.6088994140625,0.12243161692619323,0.2604045018553734,-0.061450822795368724
1790521812267901400,2.6189013671875,0.249750421372056,0.0889841053545475,-0.2000463331349194
1790521812277904400,2.628904296875,0.44419455058574675,-0.05465864190459251,-0.24156364431772379
1790521812287907300,2.6389072265625,0.5238420877963305,-0.18830957198143003,-0.25074063798580315
1790521812297910500,2.64891064453125,0.3595616261780262,-0.20397242053747175,-0.24454883414097128
1790521812307912400,2.658912353515625,0.1273304948836565,-0.19738953501582143,-0.21945351931843907
1790521812317915400,2.668915283203125,0.31324644972682,-0.11049392637312412,-0.0155574154201895
1790521812327918600,2.678918701171875,0.49635260784626006,-0.10346621969342232,0.02126611192319542
1790521812337921300,2.68892138671875,0.4535422246456146,-0.024186931273341178,-0.023911584930680692
1790521812347923500,2.69892333984375,0.29960663143098354,0.16837153032422064,-0.022231595954485237
1790521812357926400,2.708926513671875,0.21933833197355268,0.2558896547794342,-0.002260163484327495
1790521812367929300,2.718929443359375,0.13119593814015387,0.26002339358329773,0.1482299289189279
1790521812377932300,2.728932373046875,0.16495207726955413,0.3266039439499378,0.2971038182971999
1790521812387934500,2.7389345703125,0.2860533223748207,0.5966074642777442,0.19893913907799868
1790521812397937700,2.748937744140625,0.20688100146055222,0.41516894710958,0.12683606243021786
1790521812407940400,2.7589404296875,-0.4053846351981163,0.0359410819530487,0.11365529474718496
1790521812417943600,2.768943603515625,-0.15241992795467377,0.24752748462557791,0.11804748355783522
1790521812427945700,2.77894580078125,-0.06752864487171173,0.13378069393634795,0.07444151126639917
1790521812437948400,2.788948486328125,-0.025047932016849517,-0.06032090544998645,0.19175830592950804
1790521812447951600,2.79895166015625,-0.01804769786596298,-0.206200617980957,0.29724055988676845
1790521812457954600,2.80895458984375,0.06364274334907531,-0.22540450014472008,0.4453603064294904
1790521812467956500,2.81895654296875,0.26374387541115285,-0.47392684102654453,0.8783961880106479
1790521812477959700,2.828959716796875,-0.6679325788229703,-1.0826946986973285,0.07475781980711035
1790521812487962400,2.83896240234375,0.8435404901415109,-0.7759785275220871,-0.3636211672345176
1790521812497965600,2.848965576171875,1.8436574433952568,0.09887129311859608,0.7700380315572023
1790521812507967500,2.858967529296875,0.7049333989620208,0.5147627092838287,0.7097218022823333
1790521812517970700,2.868970703125,0.4890554365754127,0.43846448250114917,-0.06296661135291215
1790521812527973600,2.8789736328125,-0.04219195904135704,-0.09892974530756472,-0.24610616485187783
1790521812537976600,2.8889765625,-0.3092050653815269,-0.48252398898005483,-0.17658873904943465
1790521812547978800,2.898978759765625,-0.17210545615553854,-0.3939987333089113,-0.29182529337238516
1790521812557981400,2.9089814453125,-0.25571546725630756,-0.07096446453928947,-0.41646190952956674
1790521812567984600,2.918984619140625,-0.5535948365032672,0.13411153332591055,-0.4823044279452413
1790521812577987600,2.928987548828125,-0.8140186275810003,0.31336160053908824,-0.6319152898285537
1790521812587989500,2.938989501953125,-0.7724602902680635,0.40977030293643474,-0.6462501046512276
1790521812597992700,2.94899267578125,-0.49749008744359013,0.4078817127108574,-0.555941363096796
1790521812607995400,2.958995361328125,-0.40690263854563236,0.5467500851750373,-0.28215189448948946
1790521812617998600,2.96899853515625,-0.19716683217585085,0.6709516343832016,0.23683230494689195
1790521812628000500,2.97900048828125,-0.1473942087471485,0.6120160458117723,0.6571390898689627
1790521812638003700,2.989003662109375,-0.6622551177084446,-0.097440968054533,0.20422568291248752
1790521812648006700,2.999006591796875,-0.4331026632070541,-0.8206728247731924,-0.03266140269525349
1790521812658009600,3.009009521484375,-0.21134148800075053,-0.5673825388371944,0.8038700124017893
1790521812668012500,3.019012451171875,-0.5376455722212791,-0.19735154109299183,0.6990715211912989
1790521812678014500,3.029014404296875,-0.56905076431036,-0.26267536939680575,-0.14583516100319102
1790521812688017700,3.039017578125,-0.19769699352979658,-0.2509919458657503,-0.185743539152015
1790521812698020600,3.0490205078125,0.1906470750182867,-0.16188742900192737,0.028224223965406418
1790521812708023600,3.0590234375,0.47704994148313995,-0.1976835495263338,0.15507292668148875
1790521812718025700,3.069025634765625,0.3148579765766859,-0.2807429410070181,0.06607283830652012
1790521812728028400,3.0790283203125,0.5204717345803975,0.13890578186511993,-0.2585707836221903
1790521812738031600,3.089031494140625,0.8015309019297361,0.17662731749415397,-0.4184766834180802
1790521812748034600,3.09903466796875,0.15097732793092727,-0.34209903472363945,0.17214266462707892
1790521812758036700,3.10903662109375,-0.239009831649065,-0.283831554672122,0.2128800409459509
1790521812768039700,3.119039794921875,-0.5559130503177643,-0.6041086336880922,-0.0033305395120638423
1790521812778042600,3.129042724609375,-0.4787900631487369,-0.7672960393726825,0.012599266584205905
1790521812788045600,3.139045654296875,-0.3606628654181957,-0.4122019139975309,0.012508640575129537
1790521812798047500,3.149047607421875,-0.27841186771094795,-0.23363398382961748,0.15547082169158383
1790521812808050700,3.15905078125,-0.3184919491648674,0.9237678730666636,-0.19190120326522736
1790521812818053400,3.169053466796875,-0.2624725403010845,0.2532756728887558,-1.1025729729913174
1790521812828056600,3.179056640625,-0.3361293126642704,-0.5995902794808149,-0.6223396522317082
1790521812838058500,3.18905859375,-0.5503513245373964,0.33267595734000205,-0.001051134754437953
1790521812848061400,3.1990615234375,-0.7136714166909456,0.5618032774001359,-0.2599245180523954
1790521812858064600,3.209064697265625,-0.8184124786257744,0.23652853622734546,-0.3789286264816299
1790521812868067600,3.219067626953125,-0.4188116875261068,-0.17374737814366817,-0.15316519336402415
1790521812878069800,3.22906982421875,0.03084580464065075,-0.6486392648100853,-0.02379972205404192
1790521812888072400,3.239072509765625,0.2141746656000614,-0.6504542052775621,0.3239500684402883
1790521812898075600,3.24907568359375,-0.10272972211241721,-0.8906284045308828,0.8572287506889551
1790521812908078600,3.25907861328125,-0.6160042386651039,-0.9951087697029113,0.9104960113003849
1790521812918080500,3.26908056640625,-0.5807546461075545,-0.5832412022262812,0.4093057541646063
1790521812928083700,3.279083740234375,0.3319593335032463,0.1269201605170965,0.06034088879209011
1790521812938086400,3.28908642578125,0.8468962303102016,0.45852468923330303,0.07910663526691496
1790521812948089600,3.299089599609375,0.8104325857877731,0.43958793357312675,0.1695221251314506
1790521812958092800,3.3090927734375,0.6343880366176367,0.28747897126376626,0.253168997643888
1790521812968094500,3.319094482421875,0.5905816281169652,0.18379121777415275,0.24197631677184253
1790521812978097700,3.32909765625,0.5822849244147539,0.24157822083234787,0.11555981319425628
1790521812988100600,3.3391005859375,0.5802046110093593,0.2732633989065885,0.019997169699613005
1790521812998103600,3.349103515625,0.29456629917621613,0.1345890877097845,-0.06969024335239082
1790521813008105500,3.35910546875,-0.2167711118340492,-0.14564941090643405,-0.17056820011828094
1790521813018108700,3.369108642578125,-0.4005786962211132,-0.1862894643306732,-0.1815957352901809
1790521813028111600,3.379111572265625,-0.4255260904729366,-0.012943652725219726,-0.16876195441391317
1790521813038114600,3.389114501953125,-0.36991993858516214,0.0283861365288496,-0.07502146657882258
1790521813048116700,3.39911669921875,-0.41368601507544517,0.05970715746581554,-0.009531268732156603
1790521813058119400,3.409119384765625,-0.5440086775124072,0.056769934970140455,-0.11668415931537747
1790521813068122600,3.41912255859375,-0.6024889235317706,-0.17549217598438263,-0.26329823226919397
1790521813078125600,3.42912548828125,-0.36314416083991524,-0.2360176640957594,-0.18807636601375416
1790521813088127500,3.43912744140625,-0.22884558050930498,0.026687515917420385,-0.11796550436280667
1790521813098130700,3.449130615234375,-0.1032487775504589,0.18339841906428336,-0.04493614318296313
1790521813108133600,3.459133544921875,-0.02625380067527294,0.20280045414865017,-0.011290515223331748
1790521813118136600,3.469136474609375,0.06743512136936188,0.21164485486149787,-0.027089721776451914
1790521813128138500,3.479138427734375,0.24580782122612,0.20219547399282453,0.016027882476150987
1790521813138141700,3.4891416015625,0.3926175080835819,0.30134383048713204,-0.054218241193331775
1790521813148144400,3.499144287109375,0.4092752128958702,0.35187750141620633,-0.03288600523136556
1790521813158147600,3.509147705078125,0.37381110080480573,0.21247838307619094,0.03848554227147251
1790521813168149500,3.5191494140625,0.3112649205207825,0.1354693776756525,0.06797372175808995
1790521813178152400,3.52915234375,0.14442249945998192,0.23157412869036195,0.09415443893084302
1790521813188155600,3.53915576171875,0.006118775141239166,0.1970727241516113,0.016158961509913205
1790521813198158600,3.54915869140625,-0.048369770893454546,0.27841771292984485,-0.007046995902061462
1790521813208161500,3.55916162109375,-0.007296002227067947,0.4457604847282171,0.0323117855399847
1790521813218163500,3.56916357421875,0.20094518167078493,0.4548579834192991,0.045559206984750925
1790521813228166700,3.579166748046875,0.3483259464144707,0.43304771814942356,0.05639733879808336
1790521813238169600,3.589169677734375,0.4687947388350963,0.43290977098345756,0.04249357233643532
1790521813248172500,3.599172607421875,0.4564163187772035,0.412917953312397,0.022117248859815298
1790521813258174700,3.6091748046875,0.3427285647988319,0.34129356355965135,-0.016845665132440627
1790521813268177400,3.619177490234375,0.1994084736227989,0.27109716078341006,-0.10920922032482921
1790521813278180600,3.6291806640625,0.0992664299160242,0.28791093294024467,-0.24139672678560017
1790521813288183800,3.639183837890625,-0.02601122409105301,0.26719313908219333,-0.30865232686959204
1790521813298185500,3.649185546875,-0.12803542828261852,0.29226971267163754,-0.16886088474374264
1790521813308188700,3.659188720703125,-0.04841477907896041,0.3232499573469162,-0.0011070479264482856
1790521813318191600,3.669191650390625,1.2418857282221316,0.5357844545245171,0.20153116486519573
1790521813328194600,3.679194580078125,0.5076514159739017,0.45014381437897677,0.07491141206678002
1790521813338196500,3.689196533203125,-0.6599871727764606,0.2569271811336279,0.10294815063606948
1790521813348199700,3.69919970703125,-0.5960211888223886,0.01878185735940933,0.4503124854767695
1790521813358202600,3.70920263671875,-0.3045440878331661,0.06150690036416053,0.49064234044067556
1790521813368205600,3.71920556640625,0.12697802818417547,0.1694324375540018,0.17150551750101148
1790521813378208500,3.72920849609375,0.45308279044032096,0.1601169121980667,0.17348785042464732
1790521813388210400,3.73921044921875,0.638281536924839,0.24838147110641,0.2206129184866324
1790521813398213600,3.749213623046875,0.5824959368169307,0.3541834402710199,0.13780556553825735
1790521813408216600,3.759216552734375,0.24719547619223592,0.31743864071965217,0.06011197540704161
1790521813418219300,3.76921923828125,-0.2724842312276363,0.14049334331750868,0.061170690679736434
1790521813428221200,3.77922119140625,-0.48795653542280193,-0.0007423427999019623,0.09595635551996529
1790521813438224400,3.789224365234375,-0.2343821718484163,-0.009265840995311737,0.16888446654872968
1790521813448227300,3.799227294921875,0.06624328123629093,0.11532032361626625,0.19813887381209058
1790521813458230300,3.809230224609375,0.27593232585489746,0.195879714974761,0.18206227508969605
1790521813468232400,3.819232421875,0.3378226725786924,0.18763737180829046,0.20311269843559712
1790521813478235100,3.829235107421875,0.4100672400563955,0.09535247134268283,0.19994705574521793
1790521813488238300,3.83923828125,0.2618810041487217,0.009707739543914795,0.13919608831489458
1790521813498241300,3.8492412109375,-0.20367139176428317,-0.044133740758895874,0.061765441702492534
1790521813508244200,3.859244140625,0.576945316952467,-0.00741699825823307,0.05059921044595539
1790521813518246100,3.86924609375,0.21214754368662833,0.18954349769055842,0.0666157678104937
1790521813528249300,3.879249267578125,-1.008466848447919,0.2683060687601566,0.11680292685683816
1790521813538252300,3.889252197265625,-0.2931418193310499,0.19610826303362847,0.11037870249561965
1790521813548255200,3.899255126953125,-0.15823708980083465,0.1859451809376478,0.1383378457840532
1790521813558257400,3.90925732421875,-0.380823025393486,0.16542203286886215,0.1603943043673411
1790521813568260000,3.919260009765625,-0.4712181665897369,0.09162263716459274,0.037054678351292385
1790521813578263300,3.92926318359375,-0.5523311001777649,-0.12016191842854022,-0.07582271822541951
1790521813588266500,3.9392666015625,-0.19539982250332832,-0.25194062489271163,0.15683845678297803
1790521813598268200,3.94926806640625,-0.3992956706732511,-0.21038579471111296,0.47718558709416536
1790521813608271400,3.959271240234375,-0.5160720383167267,-0.05338847583830356,0.6281506035327911
1790521813618274300,3.9692744140625,-0.2664092952281236,0.11738719301819801,0.36080000886656344
1790521813628277200,3.97927734375,-0.19322364750802515,0.22568507065176963,0.06453343597794882
1790521813638279200,3.989279052734375,-0.27297990579009057,0.22186814271211622,0.09146589396661146
1790521813648282400,3.999282470703125,-0.14742869553864002,0.1514642346650362,0.22955164641942827
1790521813658285300,4.009285400390625,-0.011323358047008514,0.034918753167986864,0.34860607853010295
1790521813668288300,4.019288330078125,-0.2507435240626335,-0.09658990418314933,0.4542838367931544
1790521813678291200,4.029291259765625,-0.3150280724465847,-0.18530279138088226,0.4781027750043198
1790521813688293000,4.039293212890625,-0.2899322096347809,-0.08396247780025005,0.3453521182354539
1790521813698296300,4.04929638671875,-0.20531915897130965,0.09766834706962108,0.25093342061154544
1790521813708299500,4.059299560546875,0.07157002921700477,0.19929916802942751,0.14424918871968984
1790521813718302200,4.06930224609375,0.14218494966626166,0.28954876327514645,0.01594263361180201
1790521813728304400,4.079304443359375,0.17027648716270924,0.34989831029772755,-0.08073944236682727
1790521813738307300,4.089307373046875,0.2927659717559814,0.35936639586687086,-0.11432952248062937
1790521813748310300,4.099310302734375,0.09749825119972229,0.2330804416000843,-0.1491838321102783
1790521813758313200,4.109313232421875,-0.06147007548511028,0.17439619744122029,-0.193146655015368
1790521813768315400,4.1193154296875,-0.03488075924515724,0.18336743940412997,-0.30391377230668437
1790521813778318300,4.129318359375,-0.11842647293806076,0.13143617663681506,-0.35383798783421516
1790521813788321300,4.1393212890625,1.8182570446789263,0.14498539403975008,-0.23079132601590827
1790521813798324200,4.14932421875,-0.380489263394475,-0.2763280471742153,0.05460009838407859
1790521813808327200,4.1593271484375,-1.4482558575510978,-0.6716898855298757,0.016312690766900777
1790521813818329300,4.169329345703125,-0.5759527987837791,-1.1543003837496042,-0.03452290398450568
1790521813828332300,4.179332275390625,-0.8229308328330517,-1.0168208352953194,-0.06753576873224228
1790521813838335200,4.189335205078125,-0.5689215849727391,-0.40772096919119355,-0.13664938124045728
1790521813848338400,4.19933837890625,-0.5877051958978176,-0.16547756244838238,0.12122119995681568
1790521813858340400,4.20934033203125,-1.1447452044188975,-0.4451373843938112,0.26810471923546864
1790521813868343300,4.21934326171875,-1.1735399217486382,-0.5035527484834194,0.22068813914731145
1790521813878346200,4.22934619140625,-0.6443786847561598,-0.2089110459834337,0.20518881058990954
1790521813888349200,4.23934912109375,-0.34500060138404365,0.16843582773208618,0.21891879138723014
1790521813898352400,4.249352294921875,-0.09386544765532016,0.3819499835968017,0.24846863793320953
1790521813908354300,4.259354248046875,0.24395722492337227,0.33167817847430703,0.2179709343441762
1790521813918357200,4.269357177734375,0.5211170467466115,0.17357085253298282,0.16149081263346596
1790521813928360200,4.279360107421875,0.6793249104529618,0.09489420618116855,0.22329267735620958
1790521813938363400,4.28936328125,0.6978191830426455,0.08954816897809505,0.35551772108208385
1790521813948365300,4.299365234375,0.581654225295782,0.161494630292058,0.44258441197536885
1790521813958368300,4.3093681640625,0.40711598903536794,0.23497663061022758,0.41432106157597154
1790521813968371500,4.319371337890625,0.02174947499334812,0.2190028164088726,0.3252578631032258
1790521813978374100,4.3293740234375,-0.38176235207021236,0.09600830490291118,0.25279139650315047
1790521813988376300,4.339376220703125,-0.6295405965864658,-0.037167993399500845,0.27424839135594664
1790521813998379300,4.349379150390625,-0.5759276643425226,0.005403904870152473,0.24826666735401376
1790521814008382200,4.35938232421875,-0.6765536921739578,0.016361352214217185,0.20140174806555733
1790521814018385400,4.369385498046875,-0.760023418021202,-0.0667284344047308,0.2451557870581746
1790521814028388400,4.379388427734375,-0.8477771047979593,-0.12484803041815758,0.1805564371040091
1790521814038390300,4.389390380859375,-0.49223874278664587,-0.0019102175354957578,0.25983170693609864
1790521814048393200,4.399393310546875,-0.18872341347932814,0.13521744874119757,0.41366584907025095
1790521814058396400,4.409396484375,-0.26482056473195553,0.05750701707303524,0.3085657080320641
1790521814068399000,4.419399169921875,-0.4568582173258066,-0.006589899784326553,-0.03314124036775902
1790521814078401300,4.4294013671875,-0.31952713743150235,-0.02297638643980026,-0.32145763057004656
1790521814088404200,4.439404296875,-0.16794015316963196,-0.09354805226922035,-0.28641870335480196
1790521814098407200,4.4494072265625,-0.059947395962476724,-0.10566519104242324,-0.11327014962080866
1790521814108410400,4.459410400390625,0.11742694050669669,0.052447980117797846,-0.019632227111048995
1790521814118413300,4.469413330078125,0.29293431406021114,0.22359832750558853,-0.0700941297118552
1790521814128415200,4.479415283203125,0.39320729067027566,0.17280571337938308,-0.05360800034049898
1790521814138418200,4.489418212890625,0.4262631725758314,0.00870060832798481,-0.027603315588086843
1790521814148421400,4.49942138671875,0.1588362247377634,-0.08421557577848433,-0.020669041079189626
1790521814158424300,4.50942431640625,-0.1017021326303482,-0.09608195466101169,0.019454212796175853
1790521814168426200,4.51942626953125,-0.19903964031040666,-0.027380758878588676,0.06568125430620275
1790521814178429400,4.529429443359375,-0.34140579176247116,0.14138707728683947,0.09375967659275047
1790521814188432100,4.53943212890625,-0.3824655319035053,0.3201560829848051,0.14612851792657747
1790521814198435300,4.549435302734375,-0.1472200212240219,0.5074877498447895,0.19975874836519358
1790521814208438300,4.559438232421875,-0.04525426922142505,0.5450906275302171,0.21890465326402336
1790521814218440200,4.569440185546875,-0.12397066306173801,0.41904315819442267,0.17973602409921585
1790521814228443400,4.579443359375,0.06921089887022971,0.31487901936471463,0.1733641509797424
1790521814238446300,4.5894462890625,0.12327274392545222,0.24892390742003917,0.23201149719431996
1790521814248449300,4.59944921875,-0.38645021762549875,0.111928343090415,0.14623953141984528
1790521814258451200,4.609451171875,-0.16516835036873817,-0.034299744486808774,-0.01277686305725947
1790521814268454400,4.619454345703125,-0.0029249475359916684,-0.03150982150733471,0.04935822480837814
1790521814278457300,4.629457275390625,-0.035649990051984784,0.15385843632519244,0.28118593553416427
1790521814288460300,4.639460205078125,0.09216624252200126,0.2901052281141281,0.3527261906674132
1790521814298463200,4.649463134765625,0.08787234472036361,0.22423311827778816,0.35825463523268697
1790521814308465200,4.659465087890625,-0.09795417827367782,0.17218027495741844,0.3454623736768961
1790521814318468400,4.66946826171875,-0.1689957997024059,0.16596680727005003,0.3261502088330686
1790521814328471300,4.67947119140625,-0.2323252393186092,0.029980127722024914,0.3879163811879232
1790521814338474200,4.68947412109375,-0.13327917415499688,0.04927928695380687,0.43949740574546153
1790521814348476400,4.699476318359375,-0.02532499539256096,0.23367840749323368,0.3511123257299885
1790521814358479400,4.709479248046875,-0.02297697096168995,0.2551712773770094,0.329836496130377
1790521814368482300,4.719482421875,-0.006382979035377502,0.17143091789484022,0.38455746268145735
1790521814378485200,4.7294853515625,0.011711480581760405,0.16030688181221484,0.3804357065763324
1790521814388488200,4.73948828125,-0.0719219113945961,0.18761808258593082,0.4018490084178746
1790521814398490000,4.749489990234375,-0.08590016786456108,0.1573503700941801,0.3169448658533394
1790521814408493300,4.759493408203125,-0.0631686960965395,0.14853402643203734,0.23484032741207628
1790521814418496500,4.76949658203125,-0.10757716214358806,0.17282734068930147,0.20938407032266257
1790521814428499700,4.779499755859375,-0.016580547922849655,0.23264497279226778,0.19834115491854026
1790521814438501600,4.789501708984375,0.13542203140258788,0.2745505161076784,0.1625668626334518
1790521814448504600,4.799504638671875,0.10565233156085013,0.1938537621051073,0.03973155114403926
1790521814458507800,4.8095078125,0.011055647021532057,0.06617255408763885,-0.08901005264655687
1790521814468510700,4.8195107421875,-0.11432722092568874,0.03592120820879936,-0.03234053671043366
1790521814478513700,4.829513671875,-0.14260814351439474,0.06627250733077526,0.1567543404297903
1790521814488515600,4.839515625,-0.12292378435730933,0.10625380458533763,0.2201520777755417
1790521814498518800,4.849518798828125,-0.10706921262145042,0.17342647562623023,0.16987901227772234
1790521814508521500,4.859521484375,-0.13762743249237536,0.16545593513846396,0.012763318589096889
1790521814518524700,4.869524658203125,-0.2791734997332096,0.05608019914031028,-0.07515639980379492
1790521814528526800,4.87952685546875,-0.4367272834450006,-0.0787795222043991,-0.09417965557049028
1790521814538529500,4.889529541015625,-0.4532879576236009,-0.15105565386414527,-0.05215769193433225
1790521814548532700,4.89953271484375,-0.558918077352643,-0.16789982115924357,0.0688747896505054
1790521814558535700,4.90953564453125,-0.5032838684141635,-0.14109715442955492,0.12504983660057187
1790521814568538600,4.91953857421875,-0.35962358549833295,-0.07701192800998688,0.11754795480417086
1790521814578540500,4.92954052734375,-0.2575473588585853,0.06195756674110889,0.08184261783575639
1790521814588543700,4.939543701171875,-0.10693126545548438,0.1260626669049263,0.09366695680799894
1790521814598546700,4.949546630859375,-0.0644365240752697,0.05292144284844398,0.09145783852431923
1790521814608549600,4.959549560546875,-0.08942191224992274,-0.031710897037386894,0.09693560321512631
1790521814618551800,4.9695517578125,-0.1153004498720169,-0.11729659212529658,0.18394297426976264
1790521814628554500,4.979554443359375,-0.2038788970351219,-0.16676234156191347,0.3018122882490977
1790521814638557700,4.9895576171875,-0.25436522169113157,-0.19269757780730723,0.29199531617704777
1790521814648560600,4.999560546875,-0.20221710130274295,-0.13253800039887428,0.1449190234058071
1790521814658563600,5.0095634765625,-0.08267594512104988,-0.020288754791021345,0.018077846409054472
1790521814668565800,5.019565673828125,0.005660509979724884,0.05697568667531013,-0.01686188561487943
1790521814678568700,5.029568603515625,0.05116086291670799,0.05168810166120529,-0.009778384494176133
1790521814688571600,5.039571533203125,0.0030184710383415222,0.006086626437306404,0.02365318515624385
1790521814698574800,5.049574951171875,-0.1199801321208477,0.07547229735255241,0.0764757570403628
1790521814708576800,5.05957666015625,-0.29360476066768165,0.08055822231471538,0.18658570733089
1790521814718579700,5.069579833984375,-0.3921557357907295,-0.05894669448733329,0.2385677504373714
1790521814728582700,5.079582763671875,-0.5382137274980545,-0.16873802554905415,0.16727030935036016
1790521814738585600,5.089585693359375,-0.669839289227128,-0.03282031958401203,-0.04509000030411407
1790521814748588500,5.099588623046875,0.3774164318203926,-0.03435702763199806,-0.020508114896435288
1790521814758590700,5.1095908203125,-0.285220963203907,-0.14588848035931587,0.15736584165794773
1790521814768593700,5.11959375,-0.7446832255482673,-0.024207974061369895,0.3093604751389473
1790521814778596600,5.1295966796875,-0.6267746390044688,-0.11906593988537788,0.3044104880487546
1790521814788599800,5.139599853515625,-0.44391573364436626,-0.26449673960506914,0.23885292405430225
1790521814798601700,5.149601806640625,-0.13776654870212077,-0.14417758478820322,0.191730559406057
1790521814808604700,5.159604736328125,-0.030199323430657385,0.0965653542637825,0.1260637446171604
1790521814818607600,5.169607666015625,-0.020844635108113286,0.27473639406859873,0.05256928667621687
1790521814828610600,5.179610595703125,0.08521861534118652,0.2620452547997236,0.03333030579960905
1790521814838613800,5.18961376953125,0.041622050198912616,0.13647884697914123,0.09718352269474416
1790521814848615700,5.19961572265625,-0.12386603364348411,0.06998129872083664,0.12887620822200552
1790521814858618600,5.20961865234375,-0.19426643455922601,0.03329261327087879,0.11612427867660298
1790521814868621600,5.21962158203125,-0.21486907760500906,0.033380291554331774,0.20683100657267495
1790521814878624800,5.229624755859375,-0.11034136615991592,0.22430267638266085,0.22353386570094153
1790521814888626700,5.239626708984375,0.19661328994631766,0.5392892477750778,0.08599764602282084
1790521814898629600,5.249629638671875,0.4183949234187603,0.6180266844034195,0.10227930233064107
1790521814908632800,5.2596328125,0.5174632004141807,0.5590975255727768,0.03771558081228286
1790521814918635500,5.269635498046875,0.512658430480957,0.4966624044477939,-0.09934291095202788
1790521814928638700,5.279638671875,0.29124796840846534,0.3796054662972688,-0.1699158371567726
1790521814938640600,5.289640625,-0.09521510869860648,0.28787586162686346,-0.1022881888899952
1790521814948643600,5.2996435546875,-0.2820674676090479,0.2226718603104353,-0.04084655404807999
1790521814958646800,5.309646728515625,-0.40429508639574047,0.1926467244029045,-0.05805957292187958
1790521814968649700,5.319649658203125,-0.4428238467544317,0.1145031620144844,-0.15224348454237915
1790521814978651600,5.329651611328125,-0.3326426395922899,0.07140168691277504,-0.22663853545170276
1790521814988654600,5.339654541015625,-0.15319558850228784,0.038976504126191136,-0.1840278030090034
1790521814998657800,5.34965771484375,-0.09082768739461898,-0.013328268128633499,-0.08603329272493719
1790521815008660500,5.359660400390625,-0.11239946773350239,-0.05138999549746513,-0.03137310731722973
1790521815018663700,5.36966357421875,-0.09573884031176566,-0.059273442223668094,0.0737341667146422
1790521815028665900,5.379665771484375,-0.08380641045570374,0.10674714106023311,0.07108947002529166
1790521815038668500,5.38966845703125,-0.01671264986991882,0.33245442354381083,0.09858959923353977
1790521815048671700,5.399671630859375,0.02956336361467838,0.39670097800493237,0.07975539063238539
1790521815058674700,5.4096748046875,0.12032149290442466,0.34633506485819815,0.027275371408509087
1790521815068676600,5.419676513671875,0.2675660640478134,0.3035205900043249,0.05611282276827842
1790521815078679600,5.429679443359375,0.2856733831465244,0.2668225522041321,0.14197229329627006
1790521815088682800,5.439682861328125,0.19736323153078555,0.2412017887353897,0.20183018434438854
1790521815098685700,5.449685791015625,0.24435762241780756,0.21482933011651037,0.1655979739576578
1790521815108688600,5.459688720703125,0.33102877465486524,0.19730244125425814,0.17813121925108133
1790521815118690800,5.46969091796875,0.17753098833560943,0.121779290497303,0.13370710811032913
1790521815128693500,5.479693603515625,-0.07134907994270324,0.14755261417925358,-0.01525615831813775
1790521815138696700,5.48969677734375,0.34971593946814533,0.4627823466777801,0.23221531267073003
1790521815148699600,5.49969970703125,0.08325988248884678,0.19309271460473537,0.16226621745275333
1790521815158701600,5.50970166015625,-0.0930927097171545,-0.1226852994263172,-0.152716335351672
1790521815168704800,5.519704833984375,0.20269231759905815,0.003959551280736923,-0.15990937039460987
1790521815178707700,5.529707763671875,0.18407061923742293,0.23680676864683628,0.0459962786611868
1790521815188710700,5.539710693359375,0.38036476023197174,0.4261749097704887,0.061122330626519394
1790521815198713900,5.5497138671875,0.5883060844004154,0.5288122774243355,-0.08661565005700103
1790521815208715800,5.5597158203125,0.5274766449064016,0.4586532840490341,-0.12205647260402329
1790521815218718700,5.56971875,0.3175730807542801,0.26200842992067336,-0.10831888388898223
1790521815228721700,5.5797216796875,0.0874760388791561,0.08672609729468822,-0.10264392525879666
1790521815238724600,5.589724609375,-0.14919219807982445,-0.0996931308954954,-0.00785182774523273
1790521815248726500,5.5997265625,-0.2625987970292568,-0.25451895094811916,0.14022747718924655
1790521815258729700,5.609729736328125,-0.3169008805811405,-0.3021516397386789,0.19130661663925275
1790521815268732700,5.619732666015625,-0.23944179332554338,-0.2174474036604166,0.05270403267152141
1790521815278735600,5.629735595703125,-0.022916765207052228,-0.1012970589607954,-0.05091467416987289
1790521815288737800,5.63973779296875,0.17521218999922275,-0.04168751665055752,-0.0067104939566925165
1790521815298740700,5.64974072265625,0.32999124830067156,-0.003534603866934776,0.07903125934260898
1790521815308743700,5.65974365234375,0.45407589313089847,-0.019399112474918365,0.12591607977477834
1790521815318746600,5.66974658203125,0.3944330330729484,-0.10760755728185176,0.17093688730020076
1790521815328749600,5.67974951171875,0.32104747886657714,-0.21292671136558056,0.15982987541761248
1790521815338751500,5.68975146484375,0.29690847838819023,-0.2745692208081484,0.14990255657257512
1790521815348754700,5.699754638671875,0.24361352605223655,-0.27439854041635986,0.11399221681766211
1790521815358757600,5.709757568359375,0.2037619926571846,-0.24588848524689674,0.048809112158790226
1790521815368760600,5.719760498046875,0.1810918956875801,-0.2543003397613764,-0.03328011454890947
1790521815378762800,5.7297626953125,0.20195114384293555,-0.29620646759867664,-0.020615543626551516
1790521815388765700,5.739765625,0.26935470103025433,-0.2569862178444862,0.07875219580605626
1790521815398768600,5.7497685546875,0.17626491392254828,-0.18110650873482226,0.12474352886406705
1790521815408771800,5.759771728515625,0.07564239322245121,-0.10873977618217467,0.09904994675428606
1790521815418774500,5.7697744140625,-0.022238135293126106,-0.11132044032514095,0.02560917806222569
1790521815428776400,5.7797763671875,-0.10478782368600367,-0.23385025692880151,0.022250396553077735
1790521815438779600,5.789779541015625,-0.2704547712266445,-0.35622166810035705,0.0418459312158171
1790521815448782300,5.7997822265625,-0.3895025909334421,-0.45423137595355506,0.10979654609295539
1790521815458785500,5.80978564453125,-0.4164624940514564,-0.536243304207921,0.12683225390478037
1790521815468787500,5.819787353515625,-0.3421598250001669,-0.5466922175079584,0.07413750508483499
1790521815478790400,5.829790283203125,-0.21502748303711414,-0.5469628511428832,0.0914091040117666
1790521815488793600,5.839793701171875,-0.006392915907502174,-0.6194675308614969,0.19104562761550767
1790521815498796500,5.849796630859375,0.09179916277527808,-0.706385935857892,0.22952022836785763
1790521815508798700,5.859798828125,0.13276830202341078,-0.7027069550842047,0.14330454654702915
1790521815518801400,5.869801513671875,0.0513216064363718,-0.7048030505806208,0.11149817151222377
1790521815528804600,5.8798046875,-0.07067103455066681,-0.7501981895774602,0.25505256463447584
1790521815538807600,5.8898076171875,-0.0914718305170536,-0.6905261034250259,0.3922036300530657
1790521815548810500,5.899810546875,0.07093523844480513,-0.5463379972428083,0.46583983455225825
1790521815558812700,5.909812744140625,0.267936066403985,-0.36101124046444893,0.3791546903224662
1790521815568815400,5.9198154296875,0.38832185671627517,-0.2199608477860689,0.17036716112084685
1790521815578818600,5.929818603515625,0.7994435742616653,-0.18402619557380676,0.06965862893799785
1790521815588821800,5.93982177734375,2.193798914799094,-0.09969488446116447,0.43358518602699037
1790521815598823400,5.949823486328125,-0.046993806365132326,-0.23741584045588968,0.3425502856224775
1790521815608826600,5.95982666015625,0.3281166866004467,-0.5841793598592281,-0.08477559341457672
1790521815618829600,5.96982958984375,0.7994102565139531,-0.7669722142457962,-0.23276885490026322
1790521815628832500,5.97983251953125,-0.0026344401568174363,-0.5432049599140882,-0.15965762412324547
1790521815638835500,5.98983544921875,-0.32821371723413467,-0.309139598929882,0.010868492702266667
1790521815648837600,5.999837646484375,-0.1846820291340351,-0.3024351328551769,0.24368487425539642
1790521815658840600,6.009840576171875,-0.16202303808033466,-0.31907997818589207,0.3148457746822387
1790521815668843500,6.019843505859375,-0.45019817491471764,-0.21361410910785197,0.07834694860656745
1790521815678846700,6.0298466796875,-0.6840472627997398,-0.10628946042060851,-0.21295719783538952
1790521815688848400,6.039848388671875,-0.7120306637465953,-0.1484399184077978,-0.18279279958764091
1790521815698851600,6.0498515625,-0.40004093608260155,-0.24716800366342065,-0.1271739800145384
1790521815708854500,6.0598544921875,-0.12789338946342468,-0.36762335208058355,-0.05665777983255684
1790521815718857500,6.069857421875,-0.07293196521997451,-0.4963327341020107,0.01967116403208347
1790521815728860700,6.079860595703125,-0.01621522174179554,-0.5529366648554802,-0.038194265424029435
1790521815738862600,6.089862548828125,0.30292262411117554,-0.5586930364251137,-0.04292206341419369
1790521815748865500,6.099865478515625,0.5508014063924551,-0.4773439559936523,0.07750177561985329
1790521815758868500,6.109868408203125,0.6911164705336094,-0.3087438776105642,0.0844399317194242
1790521815768871400,6.119871337890625,0.7432429636120795,-0.19034253911375998,0.03799043168131029
1790521815778873300,6.129873291015625,0.8371604337155818,-0.17996084583103655,0.09848523467676713
1790521815788876500,6.13987646484375,0.85269936363101,-0.20134967081844807,0.19631869091391563
1790521815798879700,6.149879638671875,0.7651333083808421,-0.22688626313507557,0.27608285850780084
1790521815808882400,6.15988232421875,0.5428016398102045,-0.16924889768064022,0.2982104278322309
1790521815818885600,6.1698857421875,0.36309623004496094,-0.03955167366564274,0.30487456189654766
1790521815828887600,6.179887451171875,0.35640696153938767,0.08907704433500767,0.31050157146546986
1790521815838890500,6.189890380859375,0.2809884402006864,0.15790040519237517,0.31769919135197994
1790521815848893700,6.199893798828125,0.18178806125819683,0.16394903770685196,0.2684342982497066
1790521815858896400,6.209896484375,0.061245034557580944,0.056928340402245516,0.13473102606427856
1790521815868898600,6.219898681640625,0.04110065667331218,-0.13257482527792452,-0.014639960365265142
1790521815878901500,6.229901611328125,-0.03871931449472904,-0.2902273931890726,-0.04418441606678534
1790521815888904400,6.239904541015625,-0.16168635347187518,-0.3441916230887174,0.004158558151288889
1790521815898907600,6.24990771484375,-0.29629063875079154,-0.26159517294466494,-0.0587258274114225
1790521815908910600,6.25991064453125,-0.20319325285851955,-0.17133038012981414,-0.24405641098152844
1790521815918912800,6.269912841796875,-0.0461713840663433,-0.231702723506093,-0.3299978241719305
1790521815928915500,6.27991552734375,0.15841069280207157,-0.31763036389946936,-0.2170227119749412
1790521815938918700,6.289918701171875,0.20713702204823492,-0.4187286854177713,-0.08349033937701024
1790521815948921300,6.29992138671875,0.2305401094675064,-0.3458095796793699,-0.01858015164169483
1790521815958923500,6.309923583984375,0.4294248514771461,-0.1998930422693491,0.018694151676492764
1790521815968926500,6.319926513671875,1.3905249685943126,0.19796470455527304,0.2320219820557162
1790521815978929400,6.329929443359375,0.7979863611906767,0.19528467169106006,0.33495372954625635
1790521815988932600,6.3399326171875,0.6092530108392238,-0.03928454716205597,0.056961676416266704
1790521815998935600,6.349935546875,0.9060223730176686,-0.024441782817244528,-0.019405523949395865
1790521816008937500,6.3599375,0.7712304562121629,0.1666086123049259,0.2549859839379787
1790521816018940400,6.3699404296875,0.629342443665862,0.3282780146420002,0.38693580918535586
1790521816028943600,6.379943603515625,0.23042320508956907,0.362989847061038,0.2469650649698451
1790521816038946600,6.389946533203125,-0.45297874554395673,0.3329606195002794,-0.0027496823006309566
1790521816048948500,6.399948486328125,-0.22499241221249103,0.3421230001211166,-0.05298032429567538
1790521816058951700,6.40995166015625,-0.29564065040946,0.38192426463365553,0.0005552409962750971
1790521816068954400,6.419954345703125,-0.4321458008736372,0.40301206084787844,0.004145219179103151
1790521816078957600,6.42995751953125,-0.35240649372637267,0.461154453215003,-0.07693134618760086
1790521816088960800,6.439960693359375,-0.16082067655324936,0.4129916030704975,-0.04544543527881614
1790521816098962400,6.44996240234375,-0.13798983606398105,0.42611645758152006,-0.0733934178524185
1790521816108965600,6.459965576171875,-0.04032616516947746,0.5647843390375376,-0.2661973512441851
1790521816118968600,6.469968505859375,0.1146551377058029,0.8118699251145124,-0.35300624971780925
1790521816128971500,6.479971435546875,0.15153437729179858,0.9453905068099498,-0.3746968706633895
1790521816138973400,6.489973388671875,0.21951836471557615,0.8991893121272325,-0.37959132817406205
1790521816148976600,6.4999765625,0.24262100788354873,0.7350345227152109,-0.459307583239302
1790521816158979600,6.5099794921875,0.3468699023872614,0.5044558348029852,-0.5560998781267553
1790521816168982500,6.519982421875,0.3778916481167078,0.1657037724196911,-0.5237517791643739
1790521816178985500,6.5299853515625,0.3394096495091915,-0.17793313939571379,-0.5206052612995729
1790521816188987400,6.5399873046875,0.2619020469367504,-0.4031529306232929,-0.5482216920975596
1790521816198990600,6.549990478515625,0.23103929116129873,-0.5946113220244645,-0.42919290588479486
1790521816208993500,6.55999365234375,0.3207821059286594,-0.661622080501914,-0.2916768248124048
1790521816218996500,6.56999658203125,0.3702712362408638,-0.5696078136712313,-0.23448596101645378
1790521816228998700,6.57999853515625,0.4015934262216091,-0.41853988484740257,-0.27094913061484693
1790521816239001600,6.590001708984375,0.4594985027015209,-0.23696751216650008,-0.2580112317769788
1790521816249004500,6.600004638671875,0.42345863654911514,-0.1277227090716362,-0.04785607661711983
1790521816259007500,6.610007568359375,0.18072364689707754,0.02102174524068832,0.10062703247843309
1790521816269010400,6.620010498046875,-0.10396540138721465,0.20084113677442073,0.12511720274835825
1790521816279012400,6.630012451171875,-0.282639714539051,0.41456630504131314,0.09513012469573877
1790521816289015600,6.640015625,-0.17663666984438894,0.5601268686205149,0.16105477757006884
1790521816299018500,6.6500185546875,-0.2704904270619154,0.7123936518400907,0.21532126008560878
1790521816309021400,6.660021484375,-0.5229810870528221,0.7798504005193709,0.16941534028872846
1790521816319023600,6.670023681640625,-0.42188510362207887,0.7046107428789138,0.07191700689061545
1790521816329026600,6.680026611328125,-0.6049111822426319,0.38803076481521126,0.030032762091560288
1790521816339029500,6.690029541015625,-0.6222030933052302,0.027753683844208715,-0.042931762824300675
1790521816349032700,6.70003271484375,-0.5565817433595657,-0.22691256662011144,-0.15176251435871235
1790521816359035400,6.710035400390625,-0.5606617061495781,-0.346663566160202,-0.2228285487094894
1790521816369037600,6.72003759765625,-0.32037820130288597,-0.35019524741768837,-0.35273627367001026
1790521816379040500,6.73004052734375,0.0278197348177433,-0.2755786901116371,-0.4484014642236754
1790521816389043500,6.74004345703125,0.3357195628196001,-0.22857670044004916,-0.43718401423655445
1790521816399046700,6.750046630859375,0.5840870054006576,-0.2604109315961599,-0.3265005931733176
1790521816409048600,6.760048583984375,0.750828888696432,-0.3200017692059278,-0.21461811678493395
1790521816419051500,6.770051513671875,0.6236492004603147,-0.42993923074007034,-0.14570854808199218
1790521816429054500,6.780054443359375,0.41196459811031816,-0.5751128408282995,-0.11597411134988068
1790521816439057700,6.7900576171875,0.1773749209910631,-0.57057987357378,0.023355768545670435
1790521816449060400,6.800060302734375,-0.08330196806490421,-0.4722784892976284,0.14628928884570486
1790521816459062500,6.8100625,-0.24687515819668768,-0.30486031417548654,0.2301735777100548
1790521816469065500,6.8200654296875,-0.4683575164616108,-0.10061901356875896,0.30589663495328273
1790521816479068400,6.830068359375,-0.671685793876648,0.07958031719326973,0.31446254751831293
1790521816489071600,6.840071533203125,-0.7953221104174852,0.22108020720481872,0.27408976672813296
1790521816499073500,6.850073486328125,-0.8068027048528194,0.31222704355120656,0.27226894450914113
1790521816509076500,6.860076416015625,-0.7759224134206771,0.32632337344288825,0.27781634950321166
1790521816519079400,6.870079345703125,-0.7761381019979715,0.26121464919447895,0.25781134355701507
1790521816529082600,6.88008251953125,-0.6871048968046903,0.1353559804290533,0.1927104555551894
1790521816539085600,6.89008544921875,-0.4470376650571823,-0.009894202026724815,0.04184852503170259
1790521816549087500,6.90008740234375,-0.2065197669327259,-0.14407295536994932,-0.11947655737972818
1790521816559090700,6.910090576171875,-0.059016252592206,-0.24970541318655012,-0.25144107787273823
1790521816569093400,6.92009326171875,0.04506546865105629,-0.39543431906998155,-0.3023231603806838
1790521816579096600,6.9300966796875,0.09665303254723548,-0.5566144765853881,-0.37576212527472524
1790521816589099500,6.940099609375,0.12157587687969207,-0.6591682576090097,-0.428077345858328
1790521816599101400,6.950101318359375,0.2253501396089792,-0.6361930402129888,-0.5220890335839241
1790521816609104600,6.960104736328125,0.1496428644567728,-0.5499480044335127,-0.5775798154637217
1790521816619107600,6.970107666015625,0.1522480785191059,-0.43070203180611133,-0.5199295174624771
1790521816629110500,6.980110595703125,0.08593523917794227,-0.34302024122178554,-0.3637944779748097
1790521816639112400,6.990112548828125,-0.04047054207623005,-0.24419337176680564,-0.18811971196513622
1790521816649115600,7.00011572265625,-0.19877076024115084,-0.07958791597783565,-0.09637394161121919
1790521816659118600,7.01011865234375,-0.37766134649217126,0.061956982219219206,-0.07503913009967654
1790521816669121500,7.02012158203125,-0.2949889085024595,0.17969547289311885,0.0680030939830467
1790521816679124500,7.03012451171875,-0.5018693254411221,0.2431359716683626,0.15487451803255825
1790521816689126400,7.04012646484375,-0.5326572624146938,0.2713391528457403,0.1292133129555732
1790521816699129600,7.050129638671875,-0.6694628571301698,0.2742681920349598,0.19287353716241196
1790521816709132500,7.060132568359375,-0.6821966664969921,0.23231880957782267,0.24645638479534535
1790521816719135500,7.070135498046875,-0.5200175610721111,0.20796236695647238,0.2112286387434229
1790521816729137700,7.0801376953125,-0.39003625941872594,0.13284721247851847,0.21226614683130754
1790521816739140600,7.090140625,-0.2837181574255228,0.03809095346331596,0.16293357705399394
1790521816749143600,7.1001435546875,-0.18418986170291898,-0.12280454189181327,0.05938534163292497
1790521816759146500,7.110146484375,-0.15206570768952368,-0.1794540653526783,0.0012322452086955308
1790521816769149400,7.1201494140625,-0.04424187730848789,-0.09786883807778358,-0.06255586142782121
1790521816779151400,7.1301513671875,0.20427578739821908,-0.014319617253541946,-0.10740438112625851
1790521816789154600,7.140154541015625,0.38790567713081836,0.027842531171441077,-0.16753637640802188
1790521816799157500,7.150157470703125,0.5722843394041061,0.0055704936087131495,-0.23252985851261762
1790521816809160400,7.160160400390625,0.6428706182807683,-0.029037293913960455,-0.25227398503292353
1790521816819163600,7.17016357421875,0.42904082059562204,-0.0014390928924083708,-0.24663373238993808
1790521816829165600,7.18016552734375,0.3259726603090763,-0.05138473480045795,-0.11613947624573484
1790521816839168500,7.19016845703125,0.2143669733017683,-0.008266893085837364,0.04652036190079525
1790521816849171700,7.200171630859375,0.11723229471743106,0.13954524881243704,0.129438518279884
1790521816859174400,7.21017431640625,0.041755321189761156,0.31247780344188214,0.16573721803156657
1790521816869176600,7.220176513671875,-0.11435352441072463,0.39503216800987717,0.055785508776362985
1790521816879179500,7.230179443359375,-0.023396657678484915,0.4588496834039688,0.0007690116111189126
1790521816889182500,7.240182373046875,-0.14660393515229225,0.5445318246036768,0.2060501035943627
1790521816899185700,7.250185546875,-0.32229251049160956,0.4880044662177562,0.25286292736940086
1790521816909188600,7.260188720703125,-0.555600331106782,0.3226286105781793,0.13688008472379296
1790521816919190500,7.2701904296875,-0.6644733782798051,0.2361392446488142,0.02233280957294628
1790521816929193500,7.280193359375,-0.5281815783053636,0.189941557097435,0.0015101488346233962
1790521816939196700,7.29019677734375,-0.2816477808922529,0.11864976029992103,0.05920709898918867
1790521816949199400,7.300199462890625,-0.2287625784009695,0.0173322430729866,0.08209261054145171
1790521816959201500,7.310201416015625,-0.13301321669518948,0.10350830526947974,-0.059749334373418235
1790521816969204500,7.32020458984375,-0.274625919431448,0.21609774261713027,-0.2656684867981821
1790521816979207400,7.33020751953125,0.08039864783883094,0.08709200799763202,-0.15629910747557876
1790521816989210600,7.340210693359375,0.48666240395903587,0.08014262725114822,-0.04375944582009688
1790521816999213600,7.350213623046875,0.5445663113951683,0.19441490311920642,-0.15126241021631284
1790521817009215500,7.360215576171875,0.5824748940289021,0.2543079385459423,-0.25250878016948697
1790521817019218400,7.370218505859375,0.6560673689842224,0.27329671665430066,-0.2295957047568634
1790521817029221600,7.3802216796875,0.5802414358884096,0.27207272781729697,-0.18968878791276364
1790521817039224600,7.390224609375,0.4676069903552532,0.2863186953127384,-0.2241163782966323
1790521817049227500,7.4002275390625,0.31095278583168984,0.19488485871851444,-0.1719907254683785
1790521817059229700,7.410229736328125,0.11986556583046913,0.06305003815293311,-0.05254095563087612
1790521817069232400,7.420232421875,0.0340022228449583,0.13868775520026683,0.021367252476420254
1790521817079235600,7.430235595703125,-0.022673604100942612,0.2837082205533981,0.07533213996319099
1790521817089238500,7.440238525390625,-0.040732407882809636,0.34866438458859916,0.02739794747540727
1790521817099240400,7.450240478515625,-0.10690671553611755,0.3355325158149004,0.02680347044728696
1790521817109243600,7.46024365234375,-0.2448176411449909,0.3634738311856985,-0.031994828545302154
1790521817119246600,7.47024658203125,-0.31700901713073254,0.412565486612916,-0.024712416452169417
1790521817129249500,7.48024951171875,-0.3274485780805349,0.3804804955661297,0.09191181110320612
1790521817139252500,7.49025244140625,-0.2268926928758621,0.3156318835586309,0.08903559807976708
1790521817149254700,7.500254638671875,0.028027824610471725,0.24538521189987658,0.10186375293284654
1790521817159257600,7.510257568359375,0.11512509330511092,0.2429191140472889,0.030991661118436604
1790521817169260500,7.520260498046875,0.12177169171273708,0.17836334750652313,-0.030164233850967136
1790521817179263500,7.530263427734375,0.11112111836075782,0.029617724150419234,-0.0171985702233389
1790521817189266400,7.540266357421875,0.012825579303503035,-0.09565466915965079,-0.010119078557472676
1790521817199268600,7.5502685546875,-0.10131810174882411,-0.1287333474189043,0.039577995416987685
1790521817209271600,7.560271484375,-0.09900748671889305,-0.13669219746887684,0.08838564627105369
1790521817219274500,7.5702744140625,-0.0873322464942932,-0.12164017428755759,0.07143544305190444
1790521817229277700,7.580277587890625,0.09090601332783699,0.02943301523327827,0.12400661115795374
1790521817239280400,7.5902802734375,0.34969314311444755,0.1746469573318958,0.15498957751328124
1790521817249282600,7.600282470703125,0.5657341871082783,0.24718027862310407,0.22963408227218313
1790521817259285500,7.610285400390625,0.6650047086775303,0.28250001380741596,0.23804122407892717
1790521817269288400,7.620288330078125,0.5701484964191913,0.322207754817605,0.1304352194333449
1790521817279291600,7.630291748046875,0.2834732427537441,0.27286066332459447,0.09376933033708483
1790521817289293600,7.64029345703125,0.055336687296628946,0.10098433974981308,0.11664432049533352
1790521817299296500,7.650296630859375,-0.08993395342528819,0.016674655947089195,0.1567609893662855
1790521817309299500,7.660299560546875,-0.26825755344331265,0.005317980152368545,0.08310898450976237
1790521817319302700,7.670302734375,-0.2701402984499931,-0.032196634727716444,0.013753836596943438
1790521817329305600,7.6803056640625,-0.19857377636432647,-0.10333937844336032,0.006451450294861569
1790521817339307500,7.6903076171875,-0.4287333620816469,-0.28716742109656335,-0.029910076426807788
1790521817349310700,7.700310791015625,-0.7013759987413882,-0.4959323366075754,-0.0044964711690321565
1790521817359313400,7.7103134765625,-0.7172504442214965,-0.5971230125844478,0.016040961153432724
1790521817369316600,7.720316650390625,-0.8051262960731983,-0.6696633481383323,0.07091703606783412
1790521817379318500,7.730318603515625,-0.6249146903514862,-0.8265478542864322,0.19601455686818808
1790521817389321500,7.740321533203125,-0.5517442402005195,-0.7509177360236644,0.31216431704591957
1790521817399324700,7.75032470703125,-0.7300362760365009,-0.5159048650562763,0.0828089695167262
1790521817409327600,7.76032763671875,-0.5642962632596492,-0.6173123986542225,0.13503242929680273
1790521817419330000,7.770330078125,0.06117430740892887,-0.6640472618222236,0.3745724405661225
1790521817429332200,7.780332275390625,0.3487415414780378,-0.14315817861258984,0.11003966153329238
1790521817439335200,7.790335205078125,0.4500748407959938,-0.10979951436817645,0.18269892902541904
1790521817449338000,7.800338134765625,0.7821370501518249,0.36803777810037136,0.37287104347571726
1790521817459341300,7.81034130859375,0.7099637943446636,1.2945669325739144,0.2848914937875233
1790521817469344300,7.82034423828125,0.7187970891416072,0.6311871947497129,-0.058154256334854285
1790521817479346200,7.83034619140625,0.3409130398094654,-0.24506430938243864,-0.08170712748835794
1790521817489349000,7.84034912109375,-0.09302198256850241,-0.3979343191921711,0.0664156740945531
1790521817499352300,7.850352294921875,-0.3809241476804018,-0.19710253476798534,-0.05432936428445391
1790521817509355300,7.860355224609375,-0.06043430269658565,0.06576280424296856,-0.02086860050559044
1790521817519358200,7.870358154296875,0.00997018987238407,0.24702830293178557,0.05257465697107836
1790521817529360400,7.8803603515625,-0.3153367000043392,0.09267477656602859,0.06765646336930804
1790521817539363000,7.890363037109375,0.024538813450932503,-0.03489420324862003,-0.11679873473891056
1790521817549366300,7.9003662109375,-0.09739420630335807,-0.07413841840028762,-0.5622312570212409
1790521817559369200,7.910369140625,-0.504159482204914,-1.1780249582082032,0.1612854810534045
1790521817569372200,7.9203720703125,-0.44402971541285513,-0.9918436304271221,0.05559175803624093
1790521817579374300,7.930374267578125,-0.1631155094921589,0.4311199649572372,-0.991675872644782
1790521817589377300,7.940377197265625,-0.501477695775032,0.026648352950811385,-0.3167077691618353
1790521817599380200,7.950380126953125,-0.7504121245890856,-0.7451274621844292,0.10160649936930276
1790521817609383200,7.960383056640625,-0.3979366572797298,-0.535754643908143,-0.04576044691158458
1790521817619385300,7.97038525390625,-0.316769363155961,0.09161679194569587,-0.1969767529638484
1790521817629388000,7.980387939453125,-0.5062538241356611,0.26928981910049915,-0.10658011393025517
1790521817639391200,7.99039111328125,-0.538033694756031,-0.04184416851699352,-0.060092110795946785
1790521817649394200,8.000394287109375,-0.3729039228320122,-0.1923281599730253,-0.15684185431646183
1790521817659397000,8.010397216796875,-0.13397592424750326,-0.06839841344356537,-0.18877178266569972
1790521817669399300,8.0203994140625,-0.019231939214468002,0.019177578678727148,-0.1547468547985889
1790521817679402200,8.03040234375,-0.02504091775417328,-0.04814239187836647,-0.10059320327406748
1790521817689405200,8.0404052734375,0.07672492776215076,0.019382161340117453,-0.051006686135148624
1790521817699408400,8.050408447265625,0.1592851375490427,0.2278209136366844,0.0027873656962066886
1790521817709411000,8.0604111328125,0.24312428123056887,0.2174725381016731,0.0630165194758214
1790521817719413200,8.070413330078125,0.48340953964293,0.05457096362113952,0.06425266454149968
1790521817729416200,8.080416259765625,0.5938228019952774,-0.022060440638661385,0.048193236149614675
1790521817739419100,8.090419189453126,0.5769838953971862,-0.07055880634784698,0.054389981031045316
1790521817749422300,8.10042236328125,0.46772272568941115,-0.15689970371723175,0.11176272246623412
1790521817759425300,8.11042529296875,0.34623569613695143,-0.18964929615259168,0.1599238738439977
1790521817769427200,8.12042724609375,0.2760837170243263,-0.16035890426039695,0.17285411909837275
1790521817779430100,8.13043017578125,0.290913037365675,-0.07662555904090404,0.12680343880224973
1790521817789433300,8.140433349609374,0.28152093964219094,0.012948913422226906,0.07313073919508606
1790521817799436000,8.15043603515625,0.19030980588793753,0.023059388548135756,0.06206950268298387
1790521817809438200,8.160438232421875,0.12195523158609867,0.0011357260316610335,0.0029145266066771
1790521817819441400,8.17044140625,-0.04054828348755836,-0.04258300418555736,0.016926685346243902
1790521817829444000,8.180444091796875,-0.15268471637070177,-0.08808277260065078,0.1258056508034002
1790521817839447300,8.190447265625,-0.20257892035245895,-0.11129472136199474,0.29653292307406665
1790521817849450000,8.200449951171874,-0.21588146951794623,-0.08876841677725314,0.4276980642171576
1790521817859452200,8.2104521484375,-0.07708499324619769,-0.026763503763079642,0.5270006248924881
1790521817869455000,8.220455078125,0.09084113139808177,0.0072463178664445875,0.5914325823904946
1790521817879458300,8.230458251953126,0.186263745367527,0.016993220376968383,0.5722301980640739
1790521817889461200,8.240461181640624,0.3253828777223825,0.057228784653544425,0.5342726617220789
1790521817899464200,8.250464111328125,0.4230179070442915,0.12841361394524572,0.47101723719015715
1790521817909466400,8.26046630859375,0.5022065945714712,0.11661854673326015,0.3851474644638598
1790521817919469000,8.270468994140625,0.5740799906492233,0.03625380116403103,0.33074188400488347
1790521817929472300,8.28047216796875,0.5606172824859619,0.018320669588446616,0.3140451258238405
1790521817939475200,8.29047509765625,0.5330769491314887,0.04115384816527366,0.24893534212950616
1790521817949478100,8.30047802734375,0.5603980867773294,0.11114157662689685,0.21390823321621863
1790521817959480300,8.310480224609375,0.5533510908752679,0.16557810021340846,0.20992109980881213
1790521817969483300,8.320483154296875,0.4670493564724922,0.1490542509138584,0.17274247541744261
1790521817979486200,8.330486328125,0.4559165525615215,0.14273615380823612,0.06654360675658098
1790521817989489400,8.340489501953124,0.553002131307125,0.21931027492284774,-0.08464911749069579
1790521817999492000,8.3504921875,0.548272764697671,0.300364756321907,-0.17195097797987982
1790521818009494300,8.360494384765625,0.4731126020342111,0.2311328146636486,-0.17567480254229156
1790521818019497200,8.370497314453125,0.4265022420287132,0.12945055577754974,-0.24304529771022498
1790521818029500200,8.380500244140626,0.35474867293834683,0.029672084686160085,-0.22718462502714246
1790521818039503000,8.390503173828124,0.1751660127699375,-0.07628069112598895,-0.18089578859359026
1790521818049505300,8.40050537109375,0.044213235735893246,-0.2031079126626253,-0.08965844268584623
1790521818059508200,8.41050830078125,0.01618424208164215,-0.3033592619627714,-0.09485210233880206
1790521818069511200,8.42051123046875,-0.03972469214498996,-0.34229075790345664,-0.10318961297543719
1790521818079514400,8.430514404296876,-0.032062194693088526,-0.3353577437698841,-0.07640275573623366
1790521818089517000,8.44051708984375,0.1355307524740696,-0.23166940575838088,-0.08428665912016295
1790521818099519200,8.450519287109374,0.3467804705381393,-0.12937632149755954,-0.1008173674187623
1790521818109522200,8.460522216796875,0.4147925150126219,-0.14057634542584418,-0.10744798280596732
1790521818119525000,8.470525146484375,0.4757669159352779,-0.2968710689872503,-0.16973591401260346
1790521818129528300,8.4805283203125,0.5212824664413929,-0.5048854583919048,-0.23705387527570126
1790521818139531000,8.490531005859374,0.4400421070814132,-0.6229711550682783,-0.2385861080779694
1790521818149533200,8.500533203125,0.3672977733880281,-0.6730997523277997,-0.2093245769540779
1790521818159536000,8.5105361328125,0.35318273879587647,-0.5610924987822771,-0.07445111021180637
1790521818169539300,8.520539306640625,0.3529027528107166,-0.2797773108452558,0.09791682367166504
1790521818179542300,8.530542236328126,0.3072632836639881,0.08814765453040599,0.17885840101446956
1790521818189545200,8.540545166015624,0.3391676574468612,0.39644261932969094,0.1385584753979463
1790521818199547400,8.55054736328125,0.37615269549489017,0.49517771884799,0.003058972012088634
1790521818209550000,8.560550048828125,0.3094359515279531,0.43498365464806554,-0.0999013850850053
1790521818219553300,8.57055322265625,0.21303952409029006,0.3443617189586162,-0.14944695829218252
1790521818229556200,8.58055615234375,0.13317396021485328,0.1982978820323944,-0.20623530570184812
1790521818239559200,8.59055908203125,-0.05233341382741928,-0.026167291435599326,-0.18644019791297614
1790521818249561300,8.600561279296874,-0.1616156263232231,-0.23946692776679993,-0.08112404863708653
1790521818259564300,8.610564208984375,-0.20289573121666907,-0.36929216207563875,0.020583225959260015
1790521818269567200,8.620567138671875,-0.13929390439987183,-0.4504617942869663,0.13151076710983178
1790521818279570200,8.630570068359376,0.03942132528424263,-0.5790145244419574,0.23598608164740725
1790521818289573000,8.640572998046874,0.12441606874167918,-0.7112742924213409,0.3136161232894286
1790521818299575000,8.650574951171874,0.09275953224003314,-0.8080512436091899,0.36873829105254263
1790521818309578200,8.660578125,0.1684650538265705,-0.8743757733881473,0.4010722884243354
1790521818319581200,8.670581298828125,0.22354104436039923,-0.8904360968291759,0.3968848466718569
1790521818329584000,8.680584228515626,0.30408406910598273,-0.6167927586942911,0.42441498742587863
1790521818339586300,8.69058642578125,0.1609136155337095,-0.5875467904657126,0.3846142343699932
1790521818349589000,8.700589111328124,0.19134265606701373,-0.6149889241427183,0.3132507240431383
1790521818359592200,8.71059228515625,0.3615589374750852,-0.25837737994194027,0.3302022241702303
1790521818369595400,8.720595458984375,0.37462241718769074,0.009543488892912864,0.29684834569878876
1790521818379598000,8.73059814453125,0.37961481864750385,0.07600187418460845,0.19353702430613337
1790521818389600300,8.740600341796876,0.3590671206593513,0.16293372318446636,0.04379016975192353
1790521818399603200,8.750603271484374,0.2903594951361418,0.2801058121472597,-0.013304092668602243
1790521818409606100,8.760606201171875,0.2463297992736101,0.29515315915346146,-0.04179825614918954
1790521818419609000,8.770609130859375,0.22677169684469697,0.10537117653191089,-0.026404817385366184
1790521818429612000,8.780612060546876,0.11191957526206969,-0.19685235939919948,-0.029601494534825905
1790521818439614000,8.790614013671876,-0.0926788682192564,-0.49917584857344627,-0.029439508906146508
1790521818449617200,8.8006171875,-0.2657522926241159,-0.6941717664510011,0.05783771946527995
1790521818459620000,8.8106201171875,-0.2776134108096361,-0.6802133837252855,0.19975293967891483
1790521818469623000,8.820623046875,-0.17166005047559738,-0.5534679952532052,0.30004747053366154
1790521818479626200,8.830626220703126,-0.008727496334910392,-0.43666006342768665,0.32820012710019947
1790521818489628200,8.840628173828126,0.17289339166283607,-0.3213783182561397,0.2545524513589218
1790521818499631000,8.850631103515624,0.3249275351703167,-0.28152327772974967,0.14821634791814722
1790521818509634000,8.860634033203125,0.33436990177631376,-0.4372451698392629,0.07963372788093984
1790521818519637000,8.870636962890625,0.17081249373555182,-0.6424234590351581,0.037021945125469934
1790521818529640200,8.88064013671875,0.14375029928684233,-0.7430570856511592,0.06719316583964974
1790521818539642000,8.89064208984375,0.13518237742781639,-0.6920639805167913,0.18792152251191435
1790521818549645300,8.900645263671874,0.18980185636579988,-0.5375608165472746,0.31756018474008885
1790521818559648000,8.91064794921875,0.25346038180589675,-0.3461982867360115,0.3883576221494004
1790521818569651200,8.920651123046875,0.2174427274852991,-0.19391747499108314,0.37446390215773134
1790521818579654000,8.93065380859375,0.3404682186514139,-0.04387012138664722,0.30936317855268713
1790521818589656000,8.940656005859376,0.32193361405134197,0.05664192467629909,0.145173555289302
1790521818599659000,8.950658935546874,0.18877543592751025,0.0715384650349617,-0.03898830416183918
1790521818609662000,8.960661865234375,0.10946341428160666,0.0799824682533741,-0.19636541613247244
1790521818619665200,8.9706650390625,0.13329670981168745,0.18970482573211192,-0.3009901582112536
1790521818629668000,8.980668212890626,0.247471370524168,0.3005336831480265,-0.33922128733024
1790521818639670000,8.990669921875,0.31198388244509695,0.3299450710713863,-0.3359267027642578
1790521818649673000,9.0006728515625,0.30913901440799235,0.32165713519752026,-0.3446348733441904
1790521818659676200,9.01067626953125,0.33138416396379466,0.22315175278186797,-0.288423631702736
1790521818669679000,9.02067919921875,0.3466939612984657,0.0740998399555683,-0.17942056494187564
1790521818679682000,9.03068212890625,0.3819371241152286,-0.16937047823369503,0.03647284160903655
1790521818689684200,9.040684326171874,0.32101591468453405,-0.33544133040010926,0.18031506609618664
1790521818699687000,9.05068701171875,0.34572482400536536,-0.4350765936285257,0.2745030054378323
1790521818709690000,9.060690185546875,0.45258653135597704,-0.5886906998038292,0.35868582972418517
1790521818719693000,9.070693115234375,0.34330607242584227,-0.6618751784801483,0.329705490161851
1790521818729695000,9.080695068359375,0.215473473238945,-0.6033885027199983,0.3414654495278373
1790521818739698200,9.0906982421875,0.289573897716403,-0.43111002808511256,0.38427988784909245
1790521818749701000,9.100701171875,0.37942251094579693,-0.22531448377370833,0.3560386396836489
1790521818759704000,9.1107041015625,0.35161095943450926,-0.06491700106859206,0.16657454563854263
1790521818769707300,9.120707275390625,0.2711000833928585,0.01641688179373741,-0.07298947212744969
1790521818779709200,9.130709228515625,0.28337971925139427,0.1014274073421955,-0.19423697100272402
1790521818789712100,9.140712158203126,0.29138357748687266,0.22246844669282434,-0.20497757899202404
1790521818799715000,9.150715087890624,0.2712257555991411,0.30193244403004643,-0.1299805892673321
1790521818809718000,9.160718017578125,0.33368075046837326,0.2627063490569591,-0.11554863421311601
1790521818819721000,9.170720947265625,0.2693874342560768,0.12170038004219531,-0.17642616889886556
1790521818829723100,9.18072314453125,0.10381167213022709,-0.09666881463825702,-0.1539680341795087
1790521818839726000,9.19072607421875,-0.03923135567009449,-0.26689152578711506,-0.028319615197856907
1790521818849729000,9.20072900390625,-0.02484334935545921,-0.23845862750709054,0.10473273249790072
1790521818859732200,9.210732177734375,0.023103812211751937,-0.1097188503473997,0.1775806726962328
1790521818869735000,9.22073486328125,0.1607096173942089,-0.017812720066308973,0.26057857978064564
1790521818879737000,9.230737060546875,0.3191349232435226,-0.012488310173153877,0.28176216451954095
1790521818889740000,9.240739990234376,0.3851718682527542,-0.03197217832207679,0.09160577736133708
1790521818899743000,9.250742919921874,0.41385786451101303,-0.17332184620797633,-0.03250786523451097
1790521818909746200,9.26074609375,0.4917494979649782,-0.3796732708364725,0.030086510705947873
1790521818919749000,9.2707490234375,0.42650107298493384,-0.4628519047826528,0.07875091716442256
1790521818929751000,9.2807509765625,0.37805531424582,-0.3835843068003654,0.09383107046168297
1790521818939754000,9.29075390625,0.5393289952635765,-0.29592472804784775,0.10555270711127668
1790521818949757200,9.300757080078125,0.63141632733047,-0.2539320909708738,0.08752134845876135
1790521818959760100,9.310760009765625,0.6292296309411526,-0.17599778741896152,-0.005930664124037139
1790521818969763000,9.32076318359375,0.5922545297652483,-0.0006605097353458404,-0.12645472582927905
1790521818979765200,9.33076513671875,0.471553682154417,0.15491232929229734,-0.21115690694777295
1790521818989768000,9.340767822265626,0.344834012645483,0.09085457540154457,-0.26779156163306905
1790521818999771100,9.350771240234375,0.2520288876980543,-0.04901040688455104,-0.2507604021321982
1790521819009774000,9.360774169921875,0.11672726780474185,-0.13002572531700132,-0.28171427025720475
1790521819019777000,9.370777099609375,-0.09928571913838385,-0.1736632069915533,-0.28049908578116445
1790521819029779200,9.380779296875,-0.20270634612441063,-0.17116963661015033,-0.21438242659922688
1790521819039782100,9.3907822265625,-0.25702362724542616,-0.14784078347086907,-0.12872088979613036
1790521819049785000,9.40078515625,-0.27234803762733933,-0.1487403626590967,-0.11571310405982657
1790521819059788000,9.4107880859375,-0.09966507384479045,-0.08847031061351299,-0.10701893460578285
1790521819069791000,9.420791015625,0.0699953272461891,0.014607786545157432,-0.05838780479582492
1790521819079793000,9.43079296875,0.16409633722305297,-0.18851240107715128,-0.14759439836121163
1790521819089796000,9.440796142578124,0.19341946234107016,-0.39228725321590896,-0.20499337934935463
1790521819099799000,9.450799072265625,0.22727906184494495,-0.422261535719037,-0.09754981699017808
1790521819109802000,9.460802001953125,0.3344628407567739,-0.3892015621602535,0.026352361112344076
1790521819119805200,9.47080517578125,0.49797348704636096,-0.34834698920249935,0.06101391094913706
1790521819129807000,9.48080712890625,0.5987450608283281,-0.20579788239896296,-0.009972779121692291
1790521819139810000,9.49081005859375,0.7187105799019337,-0.07512918300330639,-0.08399166736211627
1790521819149813200,9.500813232421875,0.79561144875288,-0.0405249026119709,-0.1855161236043088
1790521819159816000,9.51081591796875,0.7576286318391561,-0.07806289836764335,-0.3067902958573773
1790521819169819100,9.520819091796875,0.618932108810544,-0.1143985325962305,-0.3632970863793045
1790521819179821000,9.530821044921876,0.47621407518088815,-0.10792261458039283,-0.3805097947258502
1790521819189824000,9.540823974609374,0.34977322261333466,-0.10634732808768749,-0.36005127285849303
1790521819199827200,9.5508271484375,0.2964829464524984,-0.12729717713594435,-0.34467264807131137
1790521819209830100,9.560830078125,0.19428572378158568,-0.20387305181622503,-0.3698131172098219
1790521819219833000,9.5708330078125,0.045316813063621515,-0.33259178618788715,-0.39196448753494767
1790521819229835000,9.5808349609375,-0.15019816025197505,-0.4651747947722673,-0.3918878055695444
1790521819239838200,9.590838134765624,-0.3893786722928285,-0.575900776335597,-0.3663412398481741
1790521819249841000,9.6008408203125,-0.5359434444785118,-0.5542629450231791,-0.2641399620566517
1790521819259844000,9.610843994140625,-0.5219850617527961,-0.4002817591011524,-0.15361295539783312
1790521819269847000,9.620846923828125,-0.354987157869339,-0.23550562292039393,-0.08461037464919499
1790521819279849000,9.630848876953126,-0.14416063365340231,-0.15452128414809702,-0.09930962973693386
1790521819289852200,9.64085205078125,0.09194412420392035,-0.17620879982113838,-0.18853523396346716
1790521819299855000,9.650855224609375,0.18273323315382003,-0.3075602207839489,-0.31396807853225617
1790521819309858000,9.660858154296875,0.1855973904132843,-0.47152036440670486,-0.35134350413735954
1790521819319861200,9.670861328125,0.2007166336119175,-0.5733890857756138,-0.3036524362230673
1790521819329863200,9.68086328125,0.2473316697925329,-0.5432055444359779,-0.2356510958056897
1790521819339866000,9.6908662109375,0.3173211518198252,-0.4010287780761719,-0.1864823200216517
1790521819349869000,9.700869140625,0.3738508482933044,-0.25903262898027896,-0.1533465047476813
1790521819359872000,9.7108720703125,0.3422761448562145,-0.1558773749321699,-0.1946844225092791
1790521819369875200,9.720875244140625,0.3325684053122997,-0.05943301669955253,-0.22946727433791383
1790521819379877000,9.730877197265626,0.35627310602664947,-0.07783844196200371,-0.30128713186383244
1790521819389880000,9.740880126953124,0.4282406101286411,-0.24320845238268374,-0.33280360230766237
1790521819399883000,9.750883056640625,0.348071679392457,-0.4657160620421171,-0.30267420230805875
1790521819409886200,9.76088623046875,0.1878758567392826,-0.6720534581452607,-0.2653253724489361
1790521819419889000,9.770888916015625,0.030788521495461463,-0.8119114261686802,-0.19185983007522298
1790521819429892000,9.78089208984375,-0.1315694476276636,-0.7839858928889035,-0.04593096290659159
1790521819439894000,9.79089404296875,-0.3004273001641035,-0.6535755521684885,0.002885792846303957
1790521819449897000,9.80089697265625,-0.28921967745125293,-0.5399386515945196,-0.042751725515699945
1790521819459900200,9.810900146484375,-0.1787257510781288,-0.40258945152163506,-0.1188976523800753
1790521819469903000,9.820903076171875,-0.14555354931652545,-0.27693068924248215,-0.26906033945987
1790521819479906000,9.830906005859376,-0.2633434779167175,-0.17094576472640036,-0.3513944671396166
1790521819489908000,9.840907958984374,-0.33079905755221845,-0.0985959833085537,-0.31285003428775815
1790521819499911200,9.8509111328125,-0.15633388652801514,-0.05539923113882542,-0.21545023849382997
1790521819509914000,9.8609140625,-0.00046060324907302855,-0.04361234723329544,-0.14028836793047375
1790521819519917000,9.8709169921875,0.13384616038799285,-0.09629588967263698,-0.19684094295604154
1790521819529920000,9.880919921875,0.24836744258105753,-0.2569248430460691,-0.24917375399526207
1790521819539922000,9.890921875,0.2674041514843702,-0.34775954470336434,-0.1962223726662807
1790521819549925000,9.900925048828125,0.24172727391421794,-0.34692835457623,-0.05606658617348875
1790521819559928000,9.910927978515625,0.2533838094383478,-0.29347616585195063,0.10884456999721005
1790521819569931000,9.920930908203125,0.280838218075037,-0.2771218279004097,0.2714251688950695
1790521819579934200,9.930934326171876,0.3779138599485159,-0.20580606570541857,0.31156346507593985
1790521819589936000,9.94093603515625,0.5142272872328758,-0.11802724448740481,0.20313449014229698
1790521819599939000,9.95093896484375,0.4761819264769554,-0.06504968753755093,0.1145885935419239
1790521819609942000,9.96094189453125,0.40700668344199653,-0.014479191729426383,0.020761904711124952
1790521819619945000,9.970945068359375,0.38237610005438327,0.00021568857729434965,-0.09414690407835878
1790521819629948200,9.9809482421875,0.26808745757341385,-0.027931963020563125,-0.16814758537523447
1790521819639950000,9.9909501953125,0.1254220309138298,0.006730185037851333,-0.2631333422973752
1790521819649953000,10.000953125,0.025761633244156836,0.048663200882077214,-0.2461558857451193
1790521819659956000,10.0109560546875,0.017274959927797318,0.12696984487771987,-0.23278454565973952
1790521819669959200,10.020959228515625,0.02517418874502182,0.3041781771302223,-0.24117561311451716
1790521819679962000,10.030962158203126,0.16091186196804047,0.691363138771057,-0.360551367867738
1790521819689964000,10.040964111328124,0.45822775211334227,1.1694511911302805,-0.527830280649662
1790521819699967200,10.05096728515625,0.8309756076008081,1.5814771640390157,-0.6321507790848613
1790521819709970000,10.060969970703125,1.123891801482439,1.815970979568362,-0.676340268618986
1790521819719973000,10.07097314453125,1.2266951733529567,1.7418915978789329,-0.6661671035204082
1790521819729976000,10.08097607421875,1.2696247990190983,1.462319454216957,-0.6528173542123288
1790521819739978000,10.09097802734375,1.4579875624924896,0.9031956251591443,-0.5807912517908961
1790521819749981000,10.10098095703125,1.1843231815695763,-0.11603051771223545,-0.4150077286658808
1790521819759984000,10.110984130859375,0.3944347866386175,-1.4816431633681058,-0.14957652122229337
1790521819769987000,10.120987060546875,-0.4152221386015415,-2.5176304714262483,0.20829952648896724
1790521819779990000,10.130989990234376,-1.1745680957525968,-2.9453409202009437,0.6127428987815976
1790521819789992200,10.1409921875,-1.5795459037154913,-2.8681670796275136,0.9277263283688575
1790521819799995000,10.150994873046875,-1.5496820958495139,-2.331394783109426,1.1010561386875808
1790521819809998000,10.160998046875,-1.0763467909753321,-1.2923381506085394,1.0136614214163273
1790521819820001000,10.1710009765625,-0.12104630004763603,0.36104163560271263,0.9892112360969185
1790521819830004000,10.18100390625,0.364994757142663,1.4295347904682159,0.5562434878485277
1790521819840006100,10.191006103515624,0.9380307916969061,1.5294213981091975,-0.2511649826114066
1790521819850009000,10.201009033203125,1.1972077975839375,1.4302449845641851,-1.0077464982841162
1790521819860012000,10.211011962890625,1.1149684903144836,1.2651000150710343,-1.2822342513538896
1790521819870015200,10.22101513671875,0.7351596103996038,0.7462275323808193,-1.092739195914939
1790521819880018000,10.231017822265626,0.29914369009435177,0.03208148391544818,-0.7300892483327537
1790521819890021000,10.241021240234375,0.18043255499601363,-0.6429688179582357,-0.25195375836892053
1790521819900023000,10.25102294921875,-0.11662030029892921,-1.1571066733419895,0.28106163330106065
1790521819910026000,10.26102587890625,-0.5084510419189929,-1.4115437912255524,0.7950180129043758
1790521819920029000,10.27102880859375,-0.5460089114189147,-1.3656751894980668,1.1081679434541611
1790521819930032000,10.2810322265625,-0.6033879181981087,-1.2338362772792577,1.1448934537831694
1790521819940035000,10.29103515625,-0.7983914348602295,-1.264509647962451,1.0998764273837207
1790521819950037000,10.301037109375,-0.8816752827465534,-1.2903577904462813,0.862823721151799
1790521819960040200,10.311040283203125,-0.8322808449804783,-1.115523201587796,0.5447408642444759
1790521819970043000,10.32104296875,-0.6206044259369373,-0.7222492754220962,0.3044569940716028
1790521819980046000,10.331046142578124,-0.29829379526674743,-0.30488544861674305,0.16158742314204572
1790521819990049000,10.341049072265625,-0.02710603359043598,0.003717559218406677,0.024132315009273587
1790521820000051000,10.351051025390625,0.10530629460215568,0.13550503351092338,-0.16572247712016105
1790521820010054100,10.36105419921875,0.15644436116516588,0.18844868819117544,-0.3929340632194653
1790521820020057000,10.37105712890625,-0.007572481080889701,0.15419687449932098,-0.5612609872169793
1790521820030060000,10.38106005859375,-0.2721282573968172,0.10274258159399031,-0.5137829775314777
1790521820040063200,10.391063232421875,-0.32685061218738554,0.19176994156837462,-0.3011325806229375
1790521820050065200,10.401065185546875,-0.25376959388554093,0.3396358594805002,-0.0727499049176462
1790521820060068000,10.411068115234375,-0.14667641586661337,0.4371382023334503,0.0569872492489405
1790521820070071000,10.421071044921876,-0.08771393928825855,0.36671851219534873,0.06383406467009335
1790521820080074000,10.431073974609374,0.0019616554617881772,0.2859937011420727,-0.034675683393422516
1790521820090077000,10.441076904296875,0.10620061309337615,0.23148703492879866,-0.1122973042669706
1790521820100079000,10.4510791015625,0.15409049151539803,0.18046411917805671,-0.07507286797249689
1790521820110082000,10.46108203125,0.2751373760849237,0.25806349168717857,0.034983178440015764
1790521820120085000,10.4710849609375,0.49976738472580906,0.5029191267549992,0.1127944949330762
1790521820130088200,10.481088134765624,0.7980512431204319,0.7334604052662849,0.0843104875203222
1790521820140091000,10.4910908203125,1.1469184568047524,0.7458627907216548,0.04561723904861137
1790521820150094000,10.501093994140625,1.4505109430015086,0.3777870186984539,0.06139297339459881
1790521820160096000,10.511095947265625,1.389537711122632,-0.3575748362749815,0.1363476218149066
1790521820170099000,10.521098876953126,0.8849737397700548,-1.223160569486022,0.20794506876179947
1790521820180102100,10.53110205078125,0.12146832485198975,-1.8771558083713054,0.2643204331900924
1790521820190105000,10.54110498046875,-0.5420066900402307,-2.184211002242565,0.40718693537972867
1790521820200108000,10.55110791015625,-0.9250982448875904,-2.110650091469288,0.654688920237869
1790521820210110000,10.56110986328125,-0.9289186799585819,-1.565292337435484,0.9900191914789378
1790521820220113200,10.571113037109376,-0.5234966353595256,-0.5078641819417476,1.1333759614035486
1790521820230116000,10.5811162109375,0.026240941193699834,0.586173164024949,0.8508603116355836
1790521820240119000,10.591119140625,0.4676993448138237,1.1270552339494229,0.2753699792644009
1790521820250122000,10.6011220703125,0.6608388211697339,1.1075941621541976,-0.3345849327664822
1790521820260124000,10.6111240234375,0.6201975987017154,0.890889101293683,-0.8786502358369529
1790521820270127000,10.621127197265626,0.25649580397903915,0.6677922935694456,-1.0841884443864225
1790521820280130000,10.631130126953124,-0.06783961051702499,0.3929442558199167,-1.0166819382812826
1790521820290133000,10.641133056640625,-0.061245034557580944,0.06763035168051719,-0.790613494335115
1790521820300136200,10.65113623046875,-0.2198211470544338,-0.28063597350120545,-0.40300135679077354
1790521820310138000,10.66113818359375,-0.5810235261768102,-0.5746709422796964,-0.032046029009576885
1790521820320141000,10.67114111328125,-0.650987873762846,-0.6960954279899597,0.20533654849752783
1790521820330144000,10.68114404296875,-0.5684112973630427,-0.7250731006711721,0.386495006615296
1790521820340147000,10.69114697265625,-0.3652776657372713,-0.7624228803783655,0.39020975282210857
1790521820350150100,10.701150146484375,-0.23760522554814814,-0.8913654866337776,0.24377642499636856
1790521820360152000,10.711152099609375,-0.1712269197553396,-0.8783131128370761,0.15229171673143282
1790521820370155000,10.721155029296876,-0.04978314482271671,-0.6190718095421791,0.06427694046623073
1790521820380158000,10.731157958984374,0.1592144104003906,-0.3393482747107744,0.07625621427185833
1790521820390161200,10.7411611328125,0.20486440094113348,-0.17239187188148497,0.15193133158697747
1790521820400164000,10.7511640625,0.15127075791954994,0.05356500144898891,0.155022420336958
1790521820410167000,10.7611669921875,0.2404389876693487,0.2851350384861231,0.007646354601276106
1790521820420169200,10.771169189453126,0.3418699021428823,0.3180763541013002,-0.17735840824767946
1790521820430172700,10.781172607421874,0.30522680940032004,0.11329027909338474,-0.27317794911284
1790521820440175600,10.791175537109375,0.14334814822673797,-0.11793839716017246,-0.26824765310380605
1790521820450178600,10.801178466796875,0.03866261587142944,-0.1580254928767681,-0.2023231006941758
1790521820460181500,10.811181396484375,-0.04233575142621994,-0.03175064452588558,-0.10397941164625808
1790521820470183700,10.82118359375,0.06183423262238502,-0.001281271982192993,0.09685284770196304
1790521820480186600,10.8311865234375,0.3034276510238647,0.051935938942432404,0.12475184003468602
1790521820490189600,10.841189453125,0.55319794614017,0.18267244287729262,-0.030809541450603863
1790521820500192800,10.85119287109375,0.7036380984544753,0.24079963767528534,-0.17942535071484744
1790521820510195500,10.861195556640626,0.668293228828907,0.188289113715291,-0.3458613829318434
1790521820520197600,10.87119775390625,0.5587263541728258,0.05942424887120723,-0.40339218273926525
1790521820530200600,10.88120068359375,0.39814007089734077,-0.02292377946972847,-0.2742119866020046
1790521820540203500,10.89120361328125,0.2791688235580921,-0.05311316602826118,0.01265886270077899
1790521820550206700,10.901206787109375,0.2654839970767498,-0.051741293153166765,0.23356011487580836
1790521820560209400,10.91120947265625,0.3485451421231031,-0.05443418549895286,0.30936098659560085
1790521820570212600,10.921212646484374,0.5517874948203564,-0.07030337028205394,0.2558166991410777
1790521820580214500,10.931214599609374,0.6335270358741283,-0.1297702892512083,0.1055106032689102
1790521820590217500,10.941217529296875,0.5267857400327921,-0.21641747609078882,0.03072744809114374
1790521820600220700,10.951220703125,0.5241846176236867,-0.20961890199184416,0.11536594372312538
1790521820610223600,10.9612236328125,0.5801555111706257,-0.010115151301026344,0.10477614238136447
1790521820620226600,10.9712265625,0.7054723281443118,0.15746026020944118,0.13305954005494713
1790521820630228500,10.981228515625,0.8605681973099708,0.3166694099128246,0.15770378664173185
1790521820640231700,10.991231689453125,0.9327449602484702,0.41143326771259303,0.293378568962682
1790521820650234600,11.001234619140625,0.8747335007846355,0.35656536697149277,0.5552654000639915
1790521820660237600,11.011237548828126,0.8502472943037748,0.24180209271609782,0.8477628570768981
1790521820670240800,11.02124072265625,0.3382289152920246,0.41050504695177076,1.10138646662049
1790521820680242400,11.031242431640624,-0.885527281999588,0.33401334342360495,1.521645211149752
1790521820690245600,11.04124560546875,0.6644377224445343,-0.35446342625617977,-0.09298844562508166
1790521820700248600,11.05124853515625,0.8084212459653616,-1.3151228138685225,-1.0042818909134714
1790521820710251500,11.06125146484375,-0.9247533769726752,-1.309342476901412,-1.1037186358951032
1790521820720254700,11.071254638671874,-0.9062263711571693,-0.7267647070199251,-1.0532975584950297
1790521820730257400,11.08125732421875,-0.8261451187044382,-0.5596814629405736,-1.136755813100189
1790521820740259600,11.091259521484375,-0.9862117620199918,-0.5850064583331346,-1.2308845878668129
1790521820750262500,11.101262451171875,-0.8375532324254512,-0.3624275370031595,-1.1162796459782869
1790521820760265500,11.111265380859376,-0.6295803440749644,0.2509317401111126,-0.7249688365790993
1790521820770268700,11.1212685546875,0.45627720256745813,0.23316402823030946,-0.5029059750124811
1790521820780271600,11.131271728515625,0.8346171789735555,0.04206161065995693,-0.18941282051559535
1790521820790273800,11.141273681640625,0.6219745452463626,0.11847498825490474,-0.05069161970345303
1790521820800276500,11.1512763671875,0.4659171375721693,0.326198870280385,0.11332982565248384
1790521820810279700,11.16127978515625,0.42667876763939855,0.24105624278485774,0.3102257136661559
1790521820820282600,11.17128271484375,0.28865736739337444,0.04854863459169864,0.5297766654770821
1790521820830285600,11.18128564453125,0.38372166944444175,-0.3527057689338922,0.541076606115885
1790521820840287700,11.191287841796875,0.32294074526727196,-0.7297422615259885,0.19969275219058616
1790521820850290400,11.20129052734375,0.4211310703843832,-0.5441559770286083,0.4729845186751336
1790521820860293600,11.211293701171876,0.7362859840810299,-0.3340367242991924,0.7686193238656968
1790521820870296600,11.221296630859374,0.45544893504977224,-0.6271890650242566,0.7413875450037419
1790521820880299500,11.231299560546875,0.7954296624451875,-0.5064987388074398,0.8260282143265009
1790521820890302700,11.241302734375,1.0570587376594542,-0.1219973171621561,0.514083567913249
1790521820900304600,11.2513046875,0.6610165158241987,-0.14515198277831076,-0.22305623825183138
1790521820910307600,11.2613076171875,0.35626433819830416,-0.45684243523478507,-0.541171554390341
1790521820920310500,11.271310546875,-0.029909985095262527,-0.5388415040075779,-0.5928770821103826
1790521820930313500,11.2813134765625,-0.5535416450113058,-0.3967266969680786,-0.4325798814419657
1790521820940316700,11.291316650390625,-0.7054384258747101,-0.3748047880172729,-0.19831697032535447
1790521820950318600,11.301318603515625,-0.6160065767526626,-0.5414110622346401,-0.1264543696362525
1790521820960321800,11.31132177734375,-0.5863701479017734,-0.5855179149866104,-0.018702124920394272
1790521820970324500,11.321324462890624,-0.6092465810984373,-0.6068026950776577,0.20874394578821956
1790521820980327700,11.33132763671875,-0.4850654901564121,-0.6959037048101425,0.4330797207228839
1790521820990330600,11.34133056640625,-0.20374328795671462,-0.7285247024297714,0.5208372799571603
1790521821000332500,11.35133251953125,0.00783610045313835,-0.6529822624504565,0.43949886705018576
1790521821010335700,11.361335693359376,0.2084007583737373,-0.4923118080228567,0.2934926420627162
1790521821020338400,11.37133837890625,0.43287353062629697,-0.24553075785040854,0.24314150636000556
1790521821030341600,11.381341552734375,0.6569990968763828,0.018423545441031454,0.3158043905813247
1790521821040344600,11.391344482421875,0.8839841442108154,0.1712491315871477,0.37364235664177686
1790521821050347500,11.401347412109375,1.0332073219507931,0.13258593119382858,0.4049382796701044
1790521821060349700,11.411349609375,0.955276525530219,-0.024630583387613297,0.3401902784928679
1790521821070352600,11.4213525390625,0.6575473784089088,-0.14969664047062395,0.19478609278546646
1790521821080355600,11.43135546875,0.49605157907307146,-0.13332418234050272,0.08443776716180146
1790521821090358500,11.441358642578125,0.2572872466176748,-0.08611176478862761,-0.07634482413707301
1790521821100361500,11.451361572265625,-0.09180617703795432,-0.1395949331730604,-0.3420623559750616
1790521821110363400,11.46136328125,0.12028875967860221,-0.2146095498859882,-0.46881249368749556
1790521821120366600,11.47136669921875,0.23869360530674455,-0.2048725842475891,-0.4387867001928389
1790521821130369500,11.48136962890625,0.13011165003478525,-0.17756196799576282,-0.3208164100570604
1790521821140372500,11.49137255859375,0.1166863512724638,-0.17580431067347527,-0.3557454288907349
1790521821150375700,11.501375732421875,0.08563479492664337,-0.17216624643206596,-0.5233979972906411
1790521821160378600,11.511378662109376,-0.03965630308389664,-0.16956921567618846,-0.746727883118391
1790521821170380500,11.521380615234374,-0.10151683919131756,-0.27558161272108556,-0.7986698134101927
1790521821180383700,11.5313837890625,-0.18455226527452467,-0.43904958891272544,-0.4240804582418874
1790521821190386400,11.541386474609375,-0.006080196696519852,-0.395536025878787,-0.1822436595385894
1790521821200389600,11.5513896484375,-0.021700959676504133,-0.20874504176676273,-0.05913347663055174
1790521821210392600,11.561392578125,-0.09299801717102527,-0.12506138090789318,-0.014476378717832266
1790521821220394500,11.57139453125,0.2226402961283922,-0.11738543945252895,-0.05511180163272656
1790521821230397700,11.581397705078125,0.5238070164829493,-0.21005787793099878,-0.0038899931758642195
1790521821240400600,11.591400634765625,0.19983342103660107,-0.1649362951785326,0.008795931061776355
1790521821250403600,11.601403564453125,-0.15590309389531612,0.03843523685634136,-0.018940016196342183
1790521821260406500,11.611406494140626,-0.37323943839669227,0.23093933791816232,0.12687183699649757
1790521821270408700,11.62140869140625,-0.4690343928098678,0.3510246839791536,0.2237623589608818
1790521821280411400,11.631411376953125,-0.41379005997180934,0.3488151912361383,0.39510537937656043
1790521821290414600,11.64141455078125,-0.3607096271693706,0.3599176000088453,0.5068051013428717
1790521821300417500,11.65141748046875,-0.41985505909919735,0.44048400563001633,0.45217038830313827
1790521821310420500,11.66142041015625,-0.3039706718593836,0.438489032420516,0.5168589143780992
1790521821320423700,11.671423583984375,-0.09619242929816245,0.4155173221558332,0.6098967155702412
1790521821330425600,11.681425537109375,-0.06354629723727703,0.39038112733364105,0.5644477274943143
1790521821340428500,11.691428466796875,-0.10680150159597396,0.36894437155127524,0.41497678553834555
1790521821350431700,11.701431640625,-0.00962123030424118,0.21337153252363203,0.24760772852124646
1790521821360434400,11.711434326171876,0.3123953858554363,0.010897241589426994,0.07224073155280203
1790521821370437600,11.721437744140625,0.49898821704685686,-0.14490063836574554,-0.021102756321337072
1790521821380439600,11.731439453125,0.5983458323776721,-0.27216858940720556,-0.026496249395329505
1790521821390442500,11.7414423828125,0.5992740531384945,-0.26801731494665143,-0.17711952145788817
1790521821400445700,11.75144580078125,1.0860697280883789,-0.06833353151381015,-0.33088374016098676
1790521821410448600,11.76144873046875,0.8867541934460401,0.39261867712736126,-0.7821218525826931
1790521821420451600,11.77145166015625,-1.463188638266921,-0.4333592683166265,-0.7129338961966335
1790521821430454500,11.78145458984375,-0.24071546652317047,-0.6069412267655134,-0.3324791926588863
1790521821440456400,11.79145654296875,0.15984335595369337,-0.34891865161061286,-0.16915159305231645
1790521821450459400,11.80145947265625,0.424079983317852,-0.14927987636327741,0.08726102615529671
1790521821460462300,11.81146240234375,0.3657400225520134,-0.07410860778391361,-0.08766824611616321
1790521821470465500,11.821465576171875,-0.41785073353946206,0.05881693062782287,-0.327047961390391
1790521821480468500,11.831468505859375,-0.24493220743536948,0.17448153763711452,-0.1728661931286566
1790521821490470400,11.841470458984375,-0.18323767554461956,0.3675269059687853,-0.07500070691858418
1790521821500473600,11.8514736328125,-0.42005262749791145,0.48889001688063144,-0.004400449748919345
1790521821510476300,11.861476318359376,-0.41087972548305984,0.6124596979260444,0.11552240379331633
1790521821520479500,11.8714794921875,-0.22386954566240308,0.8708832550972699,0.184944698658213
1790521821530482400,11.881482421875,0.046648938450217246,0.946531493538618,0.32471067754924293
1790521821540485400,11.8914853515625,0.1352086809128523,0.7940981215804814,0.5583234724603593
1790521821550487600,11.901487548828126,0.11127543213963507,0.5143377618700266,0.8116617622565477
1790521821560490500,11.911490478515624,0.014102175110578536,0.39260581764578817,0.7172035363398492
1790521821570493400,11.921493408203125,0.02120528511404991,0.2279611988902092,0.46870702401902525
1790521821580496400,11.931496337890625,0.0764572167366743,-0.08601064250171184,0.2596847544797696
1790521821590499300,11.941499267578125,0.14000117588639258,-0.44484278536140914,0.07535413259929045
1790521821600501200,11.951501220703125,0.29380875880718227,-0.9481301609069108,-0.22039896520869806
1790521821610504400,11.96150439453125,0.270625451618433,-0.9255500803083181,-0.22809627824565396
1790521821620507400,11.97150732421875,0.2973591447651386,-0.784783180746436,-0.35409123194292186
1790521821630510300,11.98151025390625,0.3389157285124063,-0.7119096677154302,-0.33229251098036766
1790521821640513500,11.991513427734375,0.3750187230288982,-0.6385533396035432,-0.2795731665752828
1790521821650516500,12.0015166015625,0.1582259838849306,-0.5474941815406084,-0.17589060071744023
1790521821660518400,12.011518310546874,-0.07697510313093661,-0.2193114439666271,-0.14060787307526915
1790521821670521600,12.021521484375,-0.2200602165073156,-0.21723229960501192,-0.14450396719835698
1790521821680524300,12.031524169921875,-0.19687164862155912,0.2578004568368196,0.0019782778030261396
1790521821690527500,12.041527587890625,-0.27003976068496705,0.4123953907430172,0.33898930520527065
1790521821700530400,12.051530517578126,-0.26237434062361714,0.4042968399614095,0.32795780624430626
1790521821710532400,12.061532470703124,-0.352631534653902,0.5138210445195436,0.40755478231143205
1790521821720535600,12.07153564453125,-0.29917817688584325,0.5760702876836061,0.4141395309966057
1790521821730538500,12.08153857421875,-0.35389994715452194,0.5901461593091487,0.3428951535373926
1790521821740541400,12.09154150390625,-0.5081640416711568,0.43936347716748714,0.21411741898749023
1790521821750544400,12.10154443359375,-0.48140696764886376,0.20147242041528224,0.23819003969877958
1790521821760547300,12.11154736328125,-0.4071797019213438,0.06096446405053138,0.25210502167418597
1790521821770549500,12.121549560546875,-0.25823475660085676,-0.043376200389862056,0.22093933742940425
1790521821780552400,12.131552490234375,-0.3235854729115963,-0.18522855710089206,0.21779292916245757
1790521821790555400,12.141555419921875,-0.3095470106869936,-0.2471317633062601,0.15433127800133078
1790521821800558300,12.151558349609376,-0.029319617986679074,-0.3158224376946688,0.05212853890508413
1790521821810561500,12.1615615234375,0.19795535220503807,-0.4076882359653711,-0.04460000656377524
1790521821820563200,12.171563232421875,0.13909049078226088,-0.29992168872952457,-0.17094748175945132
1790521821830566400,12.18156640625,0.24372341616749763,-0.11247019488215446,-0.2840652538301423
1790521821840569600,12.191569580078125,0.45062429137229915,-0.022292495828866957,-0.27152170633841305
1790521821850572300,12.201572265625,0.4157224893391132,0.03704758189022541,-0.25430370076224207
1790521821860575500,12.211575439453124,0.34620004030168056,0.08243395305871963,-0.33750827286727725
1790521821870578400,12.221578369140625,0.4122247103512287,0.13694529544711112,-0.2978558787735179
1790521821880580400,12.231580322265625,0.5005670106709004,0.17393267158269882,-0.1427138689111918
1790521821890583600,12.24158349609375,0.31817864543199537,0.2028770265161991,-0.015007307256758213
1790521821900586200,12.251586181640626,0.10477204159498214,0.2659644740700722,0.09514248185381292
1790521821910589400,12.26158935546875,-0.08553425716161728,0.317326997038722,0.22215649466682225
1790521821920592400,12.27159228515625,-0.32204818034172056,0.3112152361601591,0.3117309305973351
1790521821930595300,12.28159521484375,-0.4641916289538145,0.19333236857950686,0.31287162506505845
1790521821940597500,12.291597412109375,-0.7188906126439571,0.06374035850465297,0.24704306210950017
1790521821950600400,12.301600341796876,-0.9936755220293998,-0.06805822170376777,0.13456132292002437
1790521821960603400,12.311603271484374,-0.9828530992418527,-0.27305004841685293,0.09112287094891071
1790521821970606300,12.3216064453125,-0.9450357020229101,-0.4104401650220155,0.09160364020317792
1790521821980609500,12.331609619140625,-0.6922311537772416,-0.3321154008477926,0.13012524016872049
1790521821990612500,12.341612548828126,-0.37032968842983244,-0.09937047481238842,0.11981529694795608
1790521822000614400,12.351614501953126,0.06462590916752815,0.048887657287716865,0.043983883959427476
