time,seconds_elapsed,z,y,x
1790521809693446700,0.04444677734375,-0.67266845703125,-0.72418212890625,0.06982421875
1790521809703448800,0.05444873046875,-0.6390228271484375,-0.70623779296875,0.0757293701171875
1790521809713451500,0.064451416015625,-0.6504974365234375,-0.68572998046875,0.0717620849609375
1790521809723454700,0.074454833984375,-0.702911376953125,-0.6790771484375,0.059539794921875
1790521809733457700,0.084457763671875,-0.7366790771484375,-0.68878173828125,0.0405426025390625
1790521809743459600,0.09445947265625,-0.7227630615234375,-0.7010498046875,0.02886962890625
1790521809753462500,0.104462646484375,-0.699676513671875,-0.7132415771484375,0.0211944580078125
1790521809763465700,0.1144658203125,-0.6762542724609375,-0.7251129150390625,0.0186920166015625
1790521809773468000,0.124468017578125,-0.6536407470703125,-0.74102783203125,0.0205841064453125
1790521809783470600,0.134470703125,-0.6531982421875,-0.7466583251953125,0.0084686279296875
1790521809793473800,0.144473876953125,-0.684356689453125,-0.752655029296875,0.0012664794921875
1790521809803476500,0.1544765625,-0.6815643310546875,-0.760345458984375,0.0018768310546875
1790521809813478700,0.164478759765625,-0.64373779296875,-0.75628662109375,-0.014739990234375
1790521809823481600,0.174481689453125,-0.6514434814453125,-0.7469940185546875,0.0006561279296875
1790521809833484500,0.184484619140625,-0.6437225341796875,-0.734588623046875,0.0186004638671875
1790521809843487700,0.19448779296875,-0.6435699462890625,-0.7316131591796875,0.015625
1790521809853489700,0.20448974609375,-0.6486663818359375,-0.739898681640625,0.035430908203125
1790521809863492600,0.21449267578125,-0.6475677490234375,-0.7511138916015625,0.0119781494140625
1790521809873495600,0.22449560546875,-0.6816864013671875,-0.7665252685546875,-0.0005950927734375
1790521809883498800,0.234498779296875,-0.705169677734375,-0.78668212890625,0.0653076171875
1790521809893500700,0.244500732421875,-0.6553192138671875,-0.7782135009765625,0.0789031982421875
1790521809903503600,0.254503662109375,-0.601837158203125,-0.7631683349609375,0.0479736328125
1790521809913506800,0.2645068359375,-0.5964813232421875,-0.7437744140625,0.0335540771484375
1790521809923508700,0.2745087890625,-0.6138153076171875,-0.747222900390625,0.045867919921875
1790521809933511700,0.28451171875,-0.6174468994140625,-0.73846435546875,0.0504608154296875
1790521809943514600,0.2945146484375,-0.6367645263671875,-0.74163818359375,0.04840087890625
1790521809953517600,0.304517578125,-0.670745849609375,-0.7710113525390625,0.04058837890625
1790521809963519500,0.31451953125,-0.6722869873046875,-0.78094482421875,0.018524169921875
1790521809973522700,0.324522705078125,-0.6536712646484375,-0.77313232421875,0.0073394775390625
1790521809983525600,0.334525634765625,-0.649871826171875,-0.76727294921875,-0.0031890869140625
1790521809993528600,0.344528564453125,-0.6558990478515625,-0.7812957763671875,-0.0038909912109375
1790521810003530800,0.35453076171875,-0.6462860107421875,-0.83740234375,0.0344696044921875
1790521810013533700,0.36453369140625,-0.6518096923828125,-0.8502044677734375,0.0183258056640625
1790521810023536600,0.37453662109375,-0.651123046875,-0.8633270263671875,0.0169219970703125
1790521810033539800,0.384539794921875,-0.6458282470703125,-0.8354034423828125,0.0218658447265625
1790521810043541800,0.394541748046875,-0.60772705078125,-0.7877960205078125,0.0318756103515625
1790521810053544700,0.404544677734375,-0.572418212890625,-0.7687530517578125,0.027587890625
1790521810063547600,0.414547607421875,-0.5509185791015625,-0.771209716796875,-0.0012664794921875
1790521810073550600,0.424550537109375,-0.540069580078125,-0.7852783203125,-0.02490234375
1790521810083552500,0.434552490234375,-0.5296783447265625,-0.7781219482421875,-0.0284423828125
1790521810093555700,0.4445556640625,-0.557098388671875,-0.7669830322265625,-0.06011962890625
1790521810103558700,0.45455859375,-0.5882110595703125,-0.7810821533203125,-0.0586090087890625
1790521810113560600,0.464560546875,-0.5675506591796875,-0.80096435546875,-0.033111572265625
1790521810123563800,0.474563720703125,-0.5256500244140625,-0.8123931884765625,-0.0437774658203125
1790521810133566700,0.484566650390625,-0.5197296142578125,-0.8001708984375,-0.059478759765625
1790521810143569700,0.494569580078125,-0.511138916015625,-0.786834716796875,-0.05316162109375
1790521810153571600,0.504571533203125,-0.5782318115234375,-0.7800140380859375,-0.0347442626953125
1790521810163574800,0.51457470703125,-0.589263916015625,-0.743072509765625,-0.02099609375
1790521810173577700,0.52457763671875,-0.5779266357421875,-0.7320556640625,0.01312255859375
1790521810183580700,0.53458056640625,-0.5698394775390625,-0.7376251220703125,-0.02545166015625
1790521810193582800,0.544582763671875,-0.641143798828125,-0.712982177734375,-0.08502197265625
1790521810203585500,0.55458544921875,-0.7377166748046875,-0.7321624755859375,-0.0889434814453125
1790521810213588700,0.564588623046875,-0.8333740234375,-0.7703857421875,-0.066436767578125
1790521810223591700,0.574591796875,-0.8690643310546875,-0.7752685546875,-0.0336761474609375
1790521810233593600,0.584593505859375,-0.944580078125,-0.7672882080078125,-0.011810302734375
1790521810243596500,0.594596435546875,-0.91845703125,-0.7909698486328125,-0.0475921630859375
1790521810253599700,0.604599853515625,-0.7086181640625,-0.744964599609375,-0.0631866455078125
1790521810263601700,0.6146015625,-0.5709686279296875,-0.75872802734375,0.1080474853515625
1790521810273604600,0.6246044921875,-0.824066162109375,-0.9139251708984375,0.1819915771484375
1790521810283607800,0.63460791015625,-0.659912109375,-0.8807373046875,0.002471923828125
1790521810293610500,0.644610595703125,-0.47357177734375,-0.796417236328125,0.0334930419921875
1790521810303612700,0.65461279296875,-0.4866790771484375,-0.7022552490234375,0.0709991455078125
1790521810313615600,0.66461572265625,-0.414794921875,-0.662506103515625,-0.0194091796875
1790521810323618600,0.67461865234375,-0.378448486328125,-0.65240478515625,0.0133209228515625
1790521810333621800,0.684621826171875,-0.3719024658203125,-0.65179443359375,0.0529327392578125
1790521810343623700,0.694623779296875,-0.3438720703125,-0.673187255859375,0.0330963134765625
1790521810353626600,0.704626708984375,-0.3419342041015625,-0.7139434814453125,0.0326995849609375
1790521810363629600,0.714629638671875,-0.426513671875,-0.672760009765625,-0.0022125244140625
1790521810373632800,0.7246328125,-0.6813507080078125,-0.7279510498046875,0.013641357421875
1790521810383634700,0.734634765625,-0.7092742919921875,-0.81414794921875,-0.1136627197265625
1790521810393637600,0.7446376953125,-0.8192596435546875,-0.7693023681640625,-0.1757659912109375
1790521810403640800,0.754640869140625,-0.83123779296875,-0.702301025390625,-0.1605072021484375
1790521810413643000,0.76464306640625,-0.789398193359375,-0.678009033203125,-0.1614532470703125
1790521810423645200,0.774645263671875,-0.830963134765625,-0.7001190185546875,-0.1705322265625
1790521810433648000,0.784648193359375,-0.828216552734375,-0.724029541015625,-0.1380462646484375
1790521810443651000,0.794651123046875,-0.7975616455078125,-0.73486328125,-0.113616943359375
1790521810453654300,0.804654296875,-0.7440338134765625,-0.7028045654296875,-0.09893798828125
1790521810463656200,0.81465625,-0.692535400390625,-0.659332275390625,-0.067230224609375
1790521810473659400,0.824659423828125,-0.6428375244140625,-0.650543212890625,-0.0264892578125
1790521810483662000,0.834662109375,-0.6100006103515625,-0.66748046875,0.0119781494140625
1790521810493665300,0.844665283203125,-0.6185150146484375,-0.6976165771484375,0.0361480712890625
1790521810503667200,0.854667236328125,-0.65069580078125,-0.7421875,0.0648956298828125
1790521810513670100,0.864670166015625,-0.656585693359375,-0.7894439697265625,0.0848846435546875
1790521810523673300,0.87467333984375,-0.6626739501953125,-0.81695556640625,0.1085357666015625
1790521810533675300,0.88467529296875,-0.6491851806640625,-0.8289947509765625,0.12860107421875
1790521810543678200,0.89467822265625,-0.6102752685546875,-0.815643310546875,0.1067962646484375
1790521810553681200,0.90468115234375,-0.5811614990234375,-0.802276611328125,0.091278076171875
1790521810563684400,0.914684326171875,-0.5399169921875,-0.7974700927734375,0.065338134765625
1790521810573686000,0.92468603515625,-0.528228759765625,-0.8109283447265625,0.04425048828125
1790521810583689200,0.934689208984375,-0.5641326904296875,-0.8223419189453125,0.0231170654296875
1790521810593692400,0.9446923828125,-0.6021270751953125,-0.813690185546875,0.0086212158203125
1790521810603695000,0.954695068359375,-0.6345367431640625,-0.7953338623046875,0.0024871826171875
1790521810613697300,0.964697265625,-0.6364288330078125,-0.804046630859375,-0.0090484619140625
1790521810623700200,0.9747001953125,-0.618194580078125,-0.8388519287109375,-0.0238800048828125
1790521810633703200,0.984703125,-0.6174774169921875,-0.8545379638671875,-0.0186614990234375
1790521810643706400,0.994706298828125,-0.6275634765625,-0.8473052978515625,-0.012237548828125
1790521810653708300,1.004708251953125,-0.650848388671875,-0.837615966796875,-0.011962890625
1790521810663711200,1.014711181640625,-0.6658172607421875,-0.8423309326171875,-0.021484375
1790521810673714200,1.024714111328125,-0.6726531982421875,-0.851470947265625,-0.0159149169921875
1790521810683717400,1.03471728515625,-0.6793060302734375,-0.846588134765625,0.0037689208984375
1790521810693719000,1.044718994140625,-0.687255859375,-0.8386383056640625,0.0160369873046875
1790521810703722200,1.05472216796875,-0.6886749267578125,-0.808013916015625,0.020111083984375
1790521810713725200,1.06472509765625,-0.6748046875,-0.7658538818359375,0.0290985107421875
1790521810723728100,1.07472802734375,-0.651397705078125,-0.743377685546875,0.033966064453125
1790521810733730300,1.084730224609375,-0.6303863525390625,-0.740264892578125,0.0345611572265625
1790521810743733200,1.094733154296875,-0.606048583984375,-0.7434844970703125,0.02032470703125
1790521810753736200,1.104736083984375,-0.5720062255859375,-0.756378173828125,0.0007781982421875
1790521810763738000,1.114738037109375,-0.603912353515625,-0.7910614013671875,0.001739501953125
1790521810773741300,1.1247412109375,-0.6417236328125,-0.8292236328125,0.0243072509765625
1790521810783744000,1.134743896484375,-0.6547698974609375,-0.830902099609375,0.0287017822265625
1790521810793747200,1.144747314453125,-0.6452484130859375,-0.8035125732421875,0.003814697265625
1790521810803749400,1.154749267578125,-0.63531494140625,-0.7752685546875,-0.03607177734375
1790521810813752000,1.164751953125,-0.613800048828125,-0.766510009765625,-0.05706787109375
1790521810823755300,1.17475537109375,-0.595184326171875,-0.7642669677734375,-0.0374908447265625
1790521810833758200,1.18475830078125,-0.6004638671875,-0.7532196044921875,0.0021820068359375
1790521810843760000,1.194760009765625,-0.601898193359375,-0.745697021484375,0.032989501953125
1790521810853763000,1.20476318359375,-0.5942840576171875,-0.7465667724609375,0.03955078125
1790521810863766300,1.214766357421875,-0.59222412109375,-0.773223876953125,0.0147552490234375
1790521810873769200,1.224769287109375,-0.631378173828125,-0.8086700439453125,-0.024505615234375
1790521810883771100,1.234771240234375,-0.6939697265625,-0.829864501953125,-0.0489654541015625
1790521810893774300,1.2447744140625,-0.7485198974609375,-0.837310791015625,-0.0402679443359375
1790521810903777000,1.254777099609375,-0.77056884765625,-0.82562255859375,0.0035552978515625
1790521810913780200,1.2647802734375,-0.764862060546875,-0.8160552978515625,0.044036865234375
1790521810923782100,1.2747822265625,-0.7463531494140625,-0.8165283203125,0.05194091796875
1790521810933785000,1.28478515625,-0.727813720703125,-0.8120880126953125,0.034912109375
1790521810943788300,1.294788330078125,-0.695220947265625,-0.79052734375,0.018035888671875
1790521810953791200,1.304791259765625,-0.657562255859375,-0.789825439453125,0.02130126953125
1790521810963793200,1.314793212890625,-0.6402740478515625,-0.8018951416015625,0.031768798828125
1790521810973796000,1.324796142578125,-0.6346435546875,-0.7928619384765625,0.0378570556640625
1790521810983799300,1.33479931640625,-0.6204986572265625,-0.771270751953125,0.0358734130859375
1790521810993802200,1.34480224609375,-0.5921478271484375,-0.7659454345703125,0.0241546630859375
1790521811003804200,1.35480419921875,-0.5739288330078125,-0.7796173095703125,0.016448974609375
1790521811013807400,1.364807373046875,-0.5749359130859375,-0.7885284423828125,0.013458251953125
1790521811023810000,1.37481005859375,-0.588836669921875,-0.78515625,0.0089111328125
1790521811033812200,1.384812255859375,-0.609466552734375,-0.787872314453125,0.0047454833984375
1790521811043815200,1.394815185546875,-0.623565673828125,-0.800689697265625,0.0092620849609375
1790521811053818000,1.404818115234375,-0.6266937255859375,-0.801116943359375,0.01007080078125
1790521811063821300,1.4148212890625,-0.6209716796875,-0.805999755859375,0.007598876953125
1790521811073823200,1.4248232421875,-0.6281280517578125,-0.802459716796875,0.0041046142578125
1790521811083826200,1.434826171875,-0.6271209716796875,-0.787872314453125,0.005859375
1790521811093829000,1.4448291015625,-0.6114959716796875,-0.7721405029296875,0.0121002197265625
1790521811103832300,1.454832275390625,-0.608673095703125,-0.7587127685546875,0.0206756591796875
1790521811113834200,1.464834228515625,-0.6086578369140625,-0.741912841796875,0.0289154052734375
1790521811123837200,1.474837158203125,-0.6056976318359375,-0.7318267822265625,0.026123046875
1790521811133840400,1.48484033203125,-0.60308837890625,-0.73846435546875,0.019012451171875
1790521811143843000,1.494843017578125,-0.614654541015625,-0.753936767578125,0.010955810546875
1790521811153845200,1.50484521484375,-0.6412811279296875,-0.7684783935546875,0.008087158203125
1790521811163848200,1.51484814453125,-0.66436767578125,-0.7707061767578125,0.00897216796875
1790521811173851100,1.52485107421875,-0.6637115478515625,-0.767791748046875,0.014251708984375
1790521811183854000,1.53485400390625,-0.6613006591796875,-0.7754058837890625,0.0163726806640625
1790521811193856300,1.544856201171875,-0.6643218994140625,-0.7789154052734375,0.0190887451171875
1790521811203859200,1.554859130859375,-0.6530609130859375,-0.77447509765625,0.017974853515625
1790521811213862100,1.564862060546875,-0.636138916015625,-0.782073974609375,0.0142974853515625
1790521811223865300,1.574865234375,-0.639892578125,-0.7924041748046875,0.0089263916015625
1790521811233867300,1.5848671875,-0.6510467529296875,-0.7771453857421875,0.0006103515625
1790521811243870200,1.5948701171875,-0.652313232421875,-0.749298095703125,0.000274658203125
1790521811253873200,1.604873046875,-0.6357269287109375,-0.72344970703125,0.010406494140625
1790521811263876000,1.6148759765625,-0.6075592041015625,-0.694854736328125,0.0174713134765625
1790521811273878000,1.6248779296875,-0.5682220458984375,-0.6663665771484375,0.0181121826171875
1790521811283881200,1.634881103515625,-0.530181884765625,-0.6529693603515625,0.001495361328125
1790521811293884200,1.64488427734375,-0.5321502685546875,-0.6618804931640625,-0.01934814453125
1790521811303887000,1.65488720703125,-0.5715484619140625,-0.678955078125,-0.0247650146484375
1790521811313889300,1.66488916015625,-0.6196441650390625,-0.7000579833984375,-0.0100860595703125
1790521811323892200,1.674892333984375,-0.6518096923828125,-0.721160888671875,0.01617431640625
1790521811333895200,1.684895263671875,-0.6672210693359375,-0.7397308349609375,0.03277587890625
1790521811343898400,1.6948984375,-0.658416748046875,-0.7527618408203125,0.0223236083984375
1790521811353900300,1.704900390625,-0.6495819091796875,-0.762359619140625,-0.0107574462890625
1790521811363903200,1.7149033203125,-0.641571044921875,-0.78759765625,-0.028564453125
1790521811373906200,1.72490625,-0.6297454833984375,-0.812774658203125,-0.0212554931640625
1790521811383909000,1.7349091796875,-0.619842529296875,-0.814849853515625,-0.009368896484375
1790521811393911000,1.7449111328125,-0.6204376220703125,-0.810089111328125,0.0003662109375
1790521811403914200,1.754914306640625,-0.6216583251953125,-0.8011322021484375,-0.0018157958984375
1790521811413917200,1.764917236328125,-0.6073150634765625,-0.7777557373046875,-0.005279541015625
1790521811423920400,1.77492041015625,-0.581695556640625,-0.7465057373046875,0.0010986328125
1790521811433922600,1.784922607421875,-0.559417724609375,-0.7162322998046875,0.01641845703125
1790521811443925500,1.794925537109375,-0.543365478515625,-0.6946868896484375,0.0347137451171875
1790521811453928400,1.804928466796875,-0.5372772216796875,-0.6840057373046875,0.0401458740234375
1790521811463930400,1.814930419921875,-0.544830322265625,-0.68231201171875,0.0354156494140625
1790521811473933600,1.82493359375,-0.5635986328125,-0.6904449462890625,0.029327392578125
1790521811483936300,1.834936279296875,-0.593017578125,-0.709014892578125,0.031005859375
1790521811493939500,1.844939453125,-0.6207733154296875,-0.7168731689453125,0.0280609130859375
1790521811503941600,1.854941650390625,-0.6568603515625,-0.716827392578125,0.01568603515625
1790521811513944300,1.8649443359375,-0.667266845703125,-0.7245941162109375,0.003509521484375
1790521811523947500,1.874947509765625,-0.6622314453125,-0.7372894287109375,-0.0057373046875
1790521811533950200,1.8849501953125,-0.662506103515625,-0.7508544921875,-0.005859375
1790521811543952400,1.894952392578125,-0.66558837890625,-0.7572021484375,-0.0063934326171875
1790521811553955300,1.904955322265625,-0.6827392578125,-0.7695159912109375,-0.00634765625
1790521811563958500,1.91495849609375,-0.6892242431640625,-0.7828216552734375,-0.0115203857421875
1790521811573961500,1.92496142578125,-0.684356689453125,-0.800323486328125,-0.01544189453125
1790521811583963400,1.93496337890625,-0.6804962158203125,-0.8186187744140625,-0.0155181884765625
1790521811593966600,1.944966552734375,-0.678375244140625,-0.8275146484375,-0.0136871337890625
1790521811603969300,1.95496923828125,-0.6717987060546875,-0.8304290771484375,-0.0138702392578125
1790521811613972500,1.964972412109375,-0.658172607421875,-0.837921142578125,-0.008056640625
1790521811623974400,1.974974365234375,-0.6595001220703125,-0.8459930419921875,0.001953125
1790521811633977300,1.984977294921875,-0.6569366455078125,-0.8404693603515625,0.0061492919921875
1790521811643980500,1.99498046875,-0.6375885009765625,-0.823211669921875,0.013580322265625
1790521811653983200,2.004983154296875,-0.622222900390625,-0.8075408935546875,0.0308380126953125
1790521811663985400,2.0149853515625,-0.607879638671875,-0.7964019775390625,0.0448150634765625
1790521811673988400,2.02498828125,-0.609771728515625,-0.7909393310546875,0.0590972900390625
1790521811683991600,2.034991455078125,-0.62823486328125,-0.7888641357421875,0.0679473876953125
1790521811693994500,2.044994384765625,-0.6524658203125,-0.7897796630859375,0.0717010498046875
1790521811703996400,2.054996337890625,-0.684234619140625,-0.798004150390625,0.0634765625
1790521811713999600,2.06499951171875,-0.7278594970703125,-0.8085479736328125,0.05419921875
1790521811724002300,2.075002197265625,-0.7466888427734375,-0.8065948486328125,0.046142578125
1790521811734005500,2.085005615234375,-0.736663818359375,-0.7905426025390625,0.0381011962890625
1790521811744007400,2.09500732421875,-0.7171478271484375,-0.776580810546875,0.035980224609375
1790521811754010400,2.10501025390625,-0.6862030029296875,-0.7671051025390625,0.0313873291015625
1790521811764013600,2.115013671875,-0.6564788818359375,-0.7620086669921875,0.02398681640625
1790521811774016300,2.125016357421875,-0.6390838623046875,-0.767181396484375,0.0171661376953125
1790521811784018400,2.135018310546875,-0.63128662109375,-0.7786865234375,0.0098419189453125
1790521811794021400,2.145021484375,-0.6379547119140625,-0.7957611083984375,0.00543212890625
1790521811804024600,2.155024658203125,-0.65167236328125,-0.8154144287109375,0.0089111328125
1790521811814027300,2.16502734375,-0.6636962890625,-0.819732666015625,0.011322021484375
1790521811824029400,2.175029541015625,-0.65362548828125,-0.8172760009765625,0.0173492431640625
1790521811834032600,2.18503271484375,-0.639312744140625,-0.815093994140625,0.0127105712890625
1790521811844035300,2.195035400390625,-0.628814697265625,-0.817779541015625,0.00714111328125
1790521811854038500,2.20503857421875,-0.6194610595703125,-0.8196258544921875,0.010498046875
1790521811864040400,2.21504052734375,-0.6218414306640625,-0.809417724609375,0.02166748046875
1790521811874043400,2.22504345703125,-0.631072998046875,-0.7917327880859375,0.0378570556640625
1790521811884046300,2.23504638671875,-0.637115478515625,-0.774810791015625,0.0547943115234375
1790521811894049300,2.24504931640625,-0.6453094482421875,-0.7610321044921875,0.0630950927734375
1790521811904051200,2.25505126953125,-0.6454925537109375,-0.7503662109375,0.060394287109375
1790521811914054400,2.265054443359375,-0.6389617919921875,-0.7473907470703125,0.04974365234375
1790521811924057600,2.2750576171875,-0.639007568359375,-0.7523651123046875,0.0432586669921875
1790521811934060300,2.285060302734375,-0.6550140380859375,-0.7613525390625,0.0423583984375
1790521811944062500,2.2950625,-0.6706695556640625,-0.7665252685546875,0.0413360595703125
1790521811954065400,2.3050654296875,-0.6798858642578125,-0.7694244384765625,0.0363922119140625
1790521811964068400,2.315068359375,-0.6849365234375,-0.76922607421875,0.03387451171875
1790521811974071600,2.325071533203125,-0.673736572265625,-0.77056884765625,0.028717041015625
1790521811984073500,2.335073486328125,-0.650238037109375,-0.7713775634765625,0.0204620361328125
1790521811994076400,2.345076416015625,-0.619049072265625,-0.77166748046875,0.0145263671875
1790521812004079400,2.355079345703125,-0.5953521728515625,-0.7686767578125,0.01348876953125
1790521812014082300,2.365082275390625,-0.5826416015625,-0.7557220458984375,0.011383056640625
1790521812024084200,2.375084228515625,-0.5779571533203125,-0.7529144287109375,0.0113067626953125
1790521812034087400,2.38508740234375,-0.577911376953125,-0.771087646484375,0.009674072265625
1790521812044090600,2.395090576171875,-0.585418701171875,-0.7705230712890625,0.00469970703125
1790521812054093300,2.40509326171875,-0.597381591796875,-0.7805023193359375,0.006805419921875
1790521812064095500,2.415095458984375,-0.606536865234375,-0.7889251708984375,0.024200439453125
1790521812074098400,2.425098388671875,-0.6352081298828125,-0.78515625,0.048614501953125
1790521812084101400,2.435101318359375,-0.6509246826171875,-0.7779083251953125,0.0455322265625
1790521812094104600,2.4451044921875,-0.657745361328125,-0.76898193359375,0.02862548828125
1790521812104106500,2.4551064453125,-0.6410064697265625,-0.770843505859375,0.023101806640625
1790521812114109400,2.465109375,-0.6296234130859375,-0.780853271484375,0.036468505859375
1790521812124112400,2.4751123046875,-0.5783233642578125,-0.7627410888671875,0.0694732666015625
1790521812134115600,2.485115478515625,-0.5911407470703125,-0.744873046875,0.098846435546875
1790521812144117200,2.4951171875,-0.6545257568359375,-0.761260986328125,0.0858306884765625
1790521812154120400,2.505120361328125,-0.6710357666015625,-0.788665771484375,0.062591552734375
1790521812164123600,2.51512353515625,-0.6717376708984375,-0.7921600341796875,0.0509033203125
1790521812174126300,2.525126220703125,-0.6823272705078125,-0.76641845703125,0.0357818603515625
1790521812184128500,2.53512841796875,-0.7000885009765625,-0.718475341796875,0.029815673828125
1790521812194131500,2.54513134765625,-0.6840667724609375,-0.693572998046875,0.039154052734375
1790521812204134400,2.555134521484375,-0.655548095703125,-0.7076263427734375,0.0528106689453125
1790521812214137300,2.565137451171875,-0.6435546875,-0.705474853515625,0.067413330078125
1790521812224139500,2.575139404296875,-0.6439056396484375,-0.695831298828125,0.0606536865234375
1790521812234142200,2.58514208984375,-0.652496337890625,-0.692352294921875,0.0500030517578125
1790521812244144400,2.595144287109375,-0.6553497314453125,-0.7026519775390625,0.0433502197265625
1790521812254147600,2.605147705078125,-0.6549224853515625,-0.717041015625,0.0341644287109375
1790521812264150300,2.615150390625,-0.6418304443359375,-0.7346343994140625,0.019744873046875
1790521812274153500,2.625153564453125,-0.621307373046875,-0.7499237060546875,0.015167236328125
1790521812284155400,2.6351552734375,-0.6122589111328125,-0.764404296875,0.0137939453125
1790521812294158300,2.645158447265625,-0.628143310546875,-0.7667999267578125,0.0139617919921875
1790521812304161300,2.655161376953125,-0.651031494140625,-0.7668609619140625,0.0160064697265625
1790521812314164500,2.66516455078125,-0.6312103271484375,-0.7588043212890625,0.0360565185546875
1790521812324166700,2.675166748046875,-0.611541748046875,-0.7590179443359375,0.0388641357421875
1790521812334169300,2.68516943359375,-0.6148223876953125,-0.7519378662109375,0.0333099365234375
1790521812344172500,2.695172607421875,-0.62957763671875,-0.7331695556640625,0.032684326171875
1790521812354175200,2.70517529296875,-0.6372222900390625,-0.7247467041015625,0.034149169921875
1790521812364177400,2.715177490234375,-0.6461029052734375,-0.7244415283203125,0.04901123046875
1790521812374180400,2.725180419921875,-0.6427764892578125,-0.7175750732421875,0.0636444091796875
1790521812384183300,2.735183349609375,-0.63055419921875,-0.689971923828125,0.052703857421875
1790521812394186500,2.7451865234375,-0.6383819580078125,-0.7087249755859375,0.0445098876953125
1790521812404189400,2.755189453125,-0.6999359130859375,-0.7481842041015625,0.042755126953125
1790521812414191400,2.76519140625,-0.6725616455078125,-0.7280120849609375,0.042633056640625
1790521812424194600,2.775194580078125,-0.66162109375,-0.74163818359375,0.0371551513671875
1790521812434197800,2.78519775390625,-0.6542510986328125,-0.7641143798828125,0.0475311279296875
1790521812444200400,2.795200439453125,-0.6497039794921875,-0.7823486328125,0.0560302734375
1790521812454202600,2.80520263671875,-0.6369476318359375,-0.7881622314453125,0.067596435546875
1790521812464205600,2.81520556640625,-0.6122589111328125,-0.8172149658203125,0.1067352294921875
1790521812474208500,2.82520849609375,-0.7052764892578125,-0.8809814453125,0.0227813720703125
1790521812484211700,2.835211669921875,-0.552093505859375,-0.8489532470703125,-0.023529052734375
1790521812494213600,2.845213623046875,-0.452972412109375,-0.757415771484375,0.0885467529296875
1790521812504216600,2.855216552734375,-0.573028564453125,-0.7117462158203125,0.077850341796875
1790521812514219500,2.865219482421875,-0.5995025634765625,-0.71575927734375,-0.0056304931640625
1790521812524222700,2.87522265625,-0.6580810546875,-0.7667694091796875,-0.0277099609375
1790521812534224400,2.885224365234375,-0.6890869140625,-0.8025970458984375,-0.022216796875
1790521812544227600,2.8952275390625,-0.6779327392578125,-0.7910919189453125,-0.0343170166015625
1790521812554230800,2.905230712890625,-0.6883697509765625,-0.7564697265625,-0.0464630126953125
1790521812564233500,2.9152333984375,-0.720001220703125,-0.7344512939453125,-0.0518798828125
1790521812574235600,2.925235595703125,-0.747406005859375,-0.715423583984375,-0.06512451171875
1790521812584238600,2.935238525390625,-0.743743896484375,-0.705078125,-0.0638885498046875
1790521812594241500,2.945241455078125,-0.7161102294921875,-0.70489501953125,-0.0516204833984375
1790521812604244500,2.955244384765625,-0.707183837890625,-0.6904296875,-0.0206146240234375
1790521812614246700,2.96524658203125,-0.6861572265625,-0.6774139404296875,0.0346221923828125
1790521812624249600,2.97524951171875,-0.681610107421875,-0.68292236328125,0.0793914794921875
1790521812634252500,2.98525244140625,-0.734832763671875,-0.75457763671875,0.03558349609375
1790521812644255700,2.995255859375,-0.7122802734375,-0.8275604248046875,0.01312255859375
1790521812654257400,3.00525732421875,-0.6904296875,-0.8010406494140625,0.0986785888671875
1790521812664260600,3.015260498046875,-0.724456787109375,-0.76263427734375,0.0877685546875
1790521812674263600,3.025263671875,-0.7283935546875,-0.7686309814453125,0.001678466796875
1790521812684266500,3.0352666015625,-0.6911468505859375,-0.766876220703125,-0.0023040771484375
1790521812694268400,3.045268310546875,-0.65203857421875,-0.757354736328125,0.0190582275390625
1790521812704271600,3.055271728515625,-0.6231842041015625,-0.760711669921875,0.03082275390625
1790521812714274600,3.065274658203125,-0.6397552490234375,-0.7691802978515625,0.020294189453125
1790521812724277500,3.075277587890625,-0.6164703369140625,-0.728515625,-0.0146331787109375
1790521812734279700,3.08527978515625,-0.5830841064453125,-0.72894287109375,-0.0338592529296875
1790521812744282400,3.095282470703125,-0.643157958984375,-0.7873992919921875,0.022918701171875
1790521812754285600,3.10528564453125,-0.6764984130859375,-0.78704833984375,0.0244140625
1790521812764288800,3.115288818359375,-0.70355224609375,-0.8242034912109375,0.0018157958984375
1790521812774290700,3.125290771484375,-0.6922760009765625,-0.843719482421875,0.004913330078125
1790521812784293600,3.135293701171875,-0.6785736083984375,-0.8088836669921875,0.0074005126953125
1790521812794296600,3.145296630859375,-0.6699066162109375,-0.7908782958984375,0.0250396728515625
1790521812804299500,3.155299560546875,-0.675018310546875,-0.6719512939453125,-0.007080078125
1790521812814301400,3.165301513671875,-0.6711883544921875,-0.738677978515625,-0.0966033935546875
1790521812824304600,3.1753046875,-0.6808319091796875,-0.823760986328125,-0.0440673828125
1790521812834307600,3.1853076171875,-0.704833984375,-0.72674560546875,0.023406982421875
1790521812844310500,3.195310546875,-0.7236328125,-0.701385498046875,0.001739501953125
1790521812854313700,3.205313720703125,-0.7360382080078125,-0.7328643798828125,-0.00531005859375
1790521812864315400,3.2153154296875,-0.695953369140625,-0.773895263671875,0.02264404296875
1790521812874318600,3.225318603515625,-0.64947509765625,-0.822662353515625,0.039581298828125
1790521812884321800,3.23532177734375,-0.629150390625,-0.82415771484375,0.076690673828125
1790521812894324500,3.245324462890625,-0.659423828125,-0.850433349609375,0.1304473876953125
1790521812904326700,3.25532666015625,-0.7098388671875,-0.862823486328125,0.1341400146484375
1790521812914329600,3.26532958984375,-0.7046966552734375,-0.82220458984375,0.0817718505859375
1790521812924332500,3.27533251953125,-0.6104583740234375,-0.7508087158203125,0.0455322265625
1790521812934335500,3.28533544921875,-0.5570831298828125,-0.7177581787109375,0.046783447265625
1790521812944337700,3.295337646484375,-0.5603179931640625,-0.72015380859375,0.054840087890625
1790521812954340600,3.305340576171875,-0.57830810546875,-0.7357177734375,0.06158447265625
1790521812964343600,3.315343505859375,-0.5833892822265625,-0.745880126953125,0.05810546875
1790521812974346800,3.3253466796875,-0.58526611328125,-0.739227294921875,0.042633056640625
1790521812984348400,3.335348388671875,-0.586700439453125,-0.7350616455078125,0.0303497314453125
1790521812994351600,3.3453515625,-0.6171112060546875,-0.7481842041015625,0.0192413330078125
1790521813004354600,3.3553544921875,-0.67047119140625,-0.7757568359375,0.00799560546875
1790521813014357500,3.365357421875,-0.6902313232421875,-0.7790374755859375,0.006744384765625
1790521813024359700,3.375359619140625,-0.693511962890625,-0.7607269287109375,0.0081787109375
1790521813034362600,3.385362548828125,-0.688262939453125,-0.7561492919921875,0.0178070068359375
1790521813044365600,3.395365478515625,-0.6927947998046875,-0.752899169921875,0.0243988037109375
1790521813054368500,3.405368408203125,-0.7058868408203125,-0.7533721923828125,0.013336181640625
1790521813064370700,3.41537060546875,-0.7115325927734375,-0.7773284912109375,-0.001617431640625
1790521813074373400,3.425373291015625,-0.6867523193359375,-0.7838134765625,0.006256103515625
1790521813084376600,3.43537646484375,-0.6726226806640625,-0.75738525390625,0.0137481689453125
1790521813094379800,3.4453798828125,-0.6592559814453125,-0.7418670654296875,0.0216522216796875
1790521813104382500,3.455382568359375,-0.650634765625,-0.7405242919921875,0.025665283203125
1790521813114384600,3.465384521484375,-0.6402130126953125,-0.7403411865234375,0.02459716796875
1790521813124387600,3.4753876953125,-0.6213226318359375,-0.74188232421875,0.02947998046875
1790521813134390500,3.485390625,-0.60601806640625,-0.7320404052734375,0.0227203369140625
1790521813144393700,3.495393798828125,-0.604339599609375,-0.7268524169921875,0.0253753662109375
1790521813154395600,3.505395751953125,-0.608154296875,-0.740875244140625,0.0332794189453125
1790521813164398600,3.515398681640625,-0.6147613525390625,-0.748504638671875,0.0370330810546875
1790521813174401500,3.525401611328125,-0.631927490234375,-0.7385406494140625,0.040557861328125
1790521813184404700,3.53540478515625,-0.64599609375,-0.7420501708984375,0.0335235595703125
1790521813194406400,3.545406494140625,-0.6512451171875,-0.733978271484375,0.03204345703125
1790521813204409600,3.55540966796875,-0.6464385986328125,-0.7174072265625,0.0367584228515625
1790521813214412800,3.565412841796875,-0.6243743896484375,-0.7171630859375,0.03851318359375
1790521813224415500,3.57541552734375,-0.6085205078125,-0.7200775146484375,0.0397491455078125
1790521813234417700,3.585417724609375,-0.5956573486328125,-0.7205810546875,0.0382843017578125
1790521813244420600,3.595420654296875,-0.5966796875,-0.7228240966796875,0.0361480712890625
1790521813254423600,3.605423583984375,-0.6082611083984375,-0.730133056640625,0.0322723388671875
1790521813264426500,3.615426513671875,-0.622894287109375,-0.7372589111328125,0.023223876953125
1790521813274428700,3.6254287109375,-0.6330413818359375,-0.735565185546875,0.0104827880859375
1790521813284431600,3.635431640625,-0.6456756591796875,-0.7377471923828125,0.004669189453125
1790521813294434600,3.6454345703125,-0.6558990478515625,-0.73529052734375,0.019989013671875
1790521813304437800,3.655437744140625,-0.64727783203125,-0.7324981689453125,0.0382080078125
1790521813314440400,3.6654404296875,-0.5135955810546875,-0.7125091552734375,0.060455322265625
1790521813324442600,3.675442626953125,-0.5864105224609375,-0.7229156494140625,0.0482635498046875
1790521813334445600,3.685445556640625,-0.7048187255859375,-0.7431640625,0.051116943359375
1790521813344448500,3.695448486328125,-0.6995697021484375,-0.76641845703125,0.0860137939453125
1790521813354451700,3.70545166015625,-0.6723480224609375,-0.7600250244140625,0.08917236328125
1790521813364453600,3.71545361328125,-0.6308746337890625,-0.7469482421875,0.0555877685546875
1790521813374456600,3.72545654296875,-0.59930419921875,-0.74652099609375,0.054901123046875
1790521813384459500,3.73545947265625,-0.5809783935546875,-0.737091064453125,0.0587921142578125
1790521813394462500,3.74546240234375,-0.5864105224609375,-0.7265777587890625,0.049102783203125
1790521813404464400,3.75546435546875,-0.620147705078125,-0.73077392578125,0.03973388671875
1790521813414467600,3.765467529296875,-0.6729888916015625,-0.748992919921875,0.0387420654296875
1790521813424470300,3.77547021484375,-0.6952972412109375,-0.7631378173828125,0.0416412353515625
1790521813434473200,3.78547314453125,-0.6701202392578125,-0.763458251953125,0.0484161376953125
1790521813444476400,3.795476318359375,-0.6402587890625,-0.7501220703125,0.0503692626953125
1790521813454478300,3.805478271484375,-0.6196136474609375,-0.7413330078125,0.0473785400390625
1790521813464481300,3.815481201171875,-0.6139068603515625,-0.7417144775390625,0.0480194091796875
1790521813474484200,3.825484130859375,-0.6071014404296875,-0.750701904296875,0.0460968017578125
1790521813484487200,3.835487060546875,-0.62286376953125,-0.7589263916015625,0.0384521484375
1790521813494489000,3.845489013671875,-0.671112060546875,-0.7637939453125,0.0292510986328125
1790521813504492300,3.8554921875,-0.5926513671875,-0.7591400146484375,0.0257415771484375
1790521813514495500,3.86549560546875,-0.63128662109375,-0.7378692626953125,0.02545166015625
1790521813524498200,3.875498291015625,-0.7572021484375,-0.728607177734375,0.0297393798828125
1790521813534500400,3.885500244140625,-0.6854705810546875,-0.7349395751953125,0.0281982421875
1790521813544503300,3.89550341796875,-0.6724395751953125,-0.7353668212890625,0.030059814453125
1790521813554506200,3.90550634765625,-0.6952972412109375,-0.737335205078125,0.031585693359375
1790521813564509400,3.915509521484375,-0.7041778564453125,-0.7451629638671875,0.0185546875
1790521813574512000,3.92551220703125,-0.7117767333984375,-0.7673492431640625,0.0067291259765625
1790521813584514300,3.935514404296875,-0.6746673583984375,-0.7814178466796875,0.029754638671875
1790521813594517200,3.945517333984375,-0.6948699951171875,-0.7777099609375,0.0612945556640625
1790521813604520400,3.9555205078125,-0.7062225341796875,-0.76220703125,0.0749969482421875
1790521813614523400,3.9655234375,-0.6800689697265625,-0.74542236328125,0.0454254150390625
1790521813624525300,3.975525390625,-0.6716461181640625,-0.7352294921875,0.0127716064453125
1790521813634528500,3.985528564453125,-0.678436279296875,-0.736785888671875,0.0133056640625
1790521813644531200,3.99553125,-0.663848876953125,-0.7454986572265625,0.0252685546875
1790521813654534400,4.005534423828125,-0.64788818359375,-0.7591552734375,0.035308837890625
1790521813664536300,4.015536376953125,-0.670166015625,-0.7743682861328125,0.0440216064453125
1790521813674539300,4.025539306640625,-0.6746368408203125,-0.78515625,0.0440826416015625
1790521813684542200,4.035542236328125,-0.669891357421875,-0.7766265869140625,0.0275726318359375
1790521813694545200,4.045545166015625,-0.658660888671875,-0.760223388671875,0.01434326171875
1790521813704547300,4.05554736328125,-0.627288818359375,-0.75238037109375,-0.00042724609375
1790521813714550300,4.06555029296875,-0.6165008544921875,-0.74603271484375,-0.0170440673828125
1790521813724553500,4.075553466796875,-0.6097869873046875,-0.742919921875,-0.0298004150390625
1790521813734556200,4.08555615234375,-0.5935211181640625,-0.7449188232421875,-0.0353546142578125
1790521813744559400,4.095559326171875,-0.6100616455078125,-0.76043701171875,-0.0400848388671875
1790521813754561300,4.105561279296875,-0.623565673828125,-0.7685394287109375,-0.0449981689453125
1790521813764564200,4.115564208984375,-0.6189117431640625,-0.7691497802734375,-0.0561676025390625
1790521813774567400,4.1255673828125,-0.6262664794921875,-0.775360107421875,-0.0610504150390625
1790521813784570000,4.135570068359375,-0.4291839599609375,-0.7736358642578125,-0.0493621826171875
1790521813794572300,4.145572265625,-0.6556549072265625,-0.8148651123046875,-0.0191650390625
1790521813804575200,4.1555751953125,-0.7681427001953125,-0.8524017333984375,-0.021026611328125
1790521813814578200,4.165578125,-0.683135986328125,-0.898529052734375,-0.0243377685546875
1790521813824581400,4.175581298828125,-0.711761474609375,-0.8817901611328125,-0.0259857177734375
1790521813834584300,4.185584228515625,-0.6886444091796875,-0.8174591064453125,-0.03155517578125
1790521813844586500,4.19558642578125,-0.69281005859375,-0.79095458984375,-0.0037994384765625
1790521813854589200,4.205589111328125,-0.751220703125,-0.8181915283203125,0.0130767822265625
1790521813864592400,4.21559228515625,-0.7548370361328125,-0.8236236572265625,0.0102386474609375
1790521813874595300,4.22559521484375,-0.7005157470703125,-0.7938995361328125,0.0102386474609375
1790521813884597200,4.23559716796875,-0.6687469482421875,-0.7564544677734375,0.012847900390625
1790521813894600400,4.245600341796875,-0.64141845703125,-0.7360992431640625,0.0168914794921875
1790521813904603100,4.25560302734375,-0.6053314208984375,-0.7425689697265625,0.014801025390625
1790521813914606300,4.2656064453125,-0.576019287109375,-0.759552001953125,0.0101318359375
1790521813924608300,4.275608154296875,-0.559722900390625,-0.7677154541015625,0.0175323486328125
1790521813934611200,4.285611083984375,-0.5585174560546875,-0.7677154541015625,0.031982421875
1790521813944614400,4.295614501953125,-0.571685791015625,-0.759307861328125,0.04144287109375
1790521813954617300,4.305617431640625,-0.5911865234375,-0.75042724609375,0.0386810302734375
1790521813964620300,4.315620361328125,-0.6322479248046875,-0.7506103515625,0.029510498046875
1790521813974622200,4.325622314453125,-0.674896240234375,-0.7619171142578125,0.0220794677734375
1790521813984625400,4.33562548828125,-0.701141357421875,-0.774688720703125,0.0240936279296875
1790521813994628000,4.345628173828125,-0.6959381103515625,-0.7701263427734375,0.020843505859375
1790521814004631300,4.35563134765625,-0.7056884765625,-0.7694244384765625,0.0150604248046875
1790521814014633200,4.36563330078125,-0.71295166015625,-0.7789154052734375,0.018157958984375
1790521814024636200,4.37563623046875,-0.719879150390625,-0.7864837646484375,0.009857177734375
1790521814034639400,4.385639404296875,-0.6808624267578125,-0.7761688232421875,0.01544189453125
1790521814044642300,4.395642333984375,-0.6467132568359375,-0.7647247314453125,0.0280303955078125
1790521814054645200,4.405645263671875,-0.651275634765625,-0.7751617431640625,0.014617919921875
1790521814064647200,4.415647216796875,-0.667938232421875,-0.7839813232421875,-0.0220489501953125
1790521814074650400,4.425650390625,-0.651458740234375,-0.7875823974609375,-0.0525665283203125
1790521814084653300,4.4356533203125,-0.63409423828125,-0.7962646484375,-0.0495147705078125
1790521814094656300,4.44565625,-0.621856689453125,-0.7984619140625,-0.031768798828125
1790521814104658400,4.455658447265625,-0.60321044921875,-0.7827911376953125,-0.0216064453125
1790521814114661000,4.4656611328125,-0.58538818359375,-0.7653045654296875,-0.0257568359375
1790521814124664300,4.475664306640625,-0.5759124755859375,-0.769927978515625,-0.0227813720703125
1790521814134667500,4.48566748046875,-0.5740966796875,-0.7854766845703125,-0.0185394287109375
1790521814144669200,4.495669189453125,-0.6037750244140625,-0.7930908203125,-0.0158843994140625
1790521814154672400,4.50567236328125,-0.6333770751953125,-0.79193115234375,-0.009429931640625
1790521814164675300,4.51567529296875,-0.6465301513671875,-0.782379150390625,-0.001983642578125
1790521814174678300,4.52567822265625,-0.664093017578125,-0.7627410888671875,0.0038909912109375
1790521814184681200,4.53568115234375,-0.6708221435546875,-0.742462158203125,0.0121307373046875
1790521814194683400,4.545683349609375,-0.6487274169921875,-0.7218170166015625,0.0199127197265625
1790521814204686300,4.555686279296875,-0.63958740234375,-0.716949462890625,0.0237579345703125
1790521814214689300,4.565689208984375,-0.6483001708984375,-0.7292327880859375,0.0216064453125
1790521814224692200,4.575692138671875,-0.628814697265625,-0.7396697998046875,0.022613525390625
1790521814234694100,4.585694091796875,-0.6232452392578125,-0.746429443359375,0.0302886962890625
1790521814244697300,4.595697265625,-0.6750030517578125,-0.76055908203125,0.02362060546875
1790521814254700300,4.6057001953125,-0.6522064208984375,-0.775634765625,0.0095062255859375
1790521814264703200,4.615703125,-0.635467529296875,-0.775482177734375,0.0177001953125
1790521814274706400,4.62570654296875,-0.6386871337890625,-0.75665283203125,0.0427093505859375
1790521814284708400,4.635708251953125,-0.6256256103515625,-0.742767333984375,0.050811767578125
1790521814294711300,4.645711181640625,-0.62603759765625,-0.7494964599609375,0.051849365234375
1790521814304714200,4.65571435546875,-0.64495849609375,-0.75482177734375,0.0508270263671875
1790521814314717200,4.66571728515625,-0.6522064208984375,-0.7554473876953125,0.049102783203125
1790521814324719000,4.675718994140625,-0.658782958984375,-0.7692108154296875,0.0556793212890625
1790521814334722300,4.685722412109375,-0.64892578125,-0.7670440673828125,0.0608978271484375
1790521814344725200,4.695725341796875,-0.63818359375,-0.7480316162109375,0.0513916015625
1790521814354728200,4.705728271484375,-0.6380767822265625,-0.7457427978515625,0.048614501953125
1790521814364731400,4.7157314453125,-0.6363525390625,-0.7543182373046875,0.053680419921875
1790521814374733300,4.7257333984375,-0.6344146728515625,-0.7555389404296875,0.0527191162109375
1790521814384736300,4.735736328125,-0.6429290771484375,-0.752777099609375,0.054229736328125
1790521814394739500,4.745739501953125,-0.6444854736328125,-0.755767822265625,0.0448455810546875
1790521814404742100,4.7557421875,-0.642364501953125,-0.7565155029296875,0.0357818603515625
1790521814414744300,4.765744384765625,-0.64697265625,-0.7539825439453125,0.0325164794921875
1790521814424747800,4.775747802734375,-0.637451171875,-0.7480926513671875,0.030670166015625
1790521814434750500,4.78575048828125,-0.621368408203125,-0.7443084716796875,0.02630615234375
1790521814444753700,4.795753662109375,-0.623748779296875,-0.753082275390625,0.01324462890625
1790521814454756900,4.8057568359375,-0.63299560546875,-0.7664337158203125,-0.000213623046875
1790521814464758500,4.815758544921875,-0.6457672119140625,-0.76953125,0.0054473876953125
1790521814474761700,4.82576171875,-0.648895263671875,-0.7662353515625,0.0247802734375
1790521814484764700,4.8357646484375,-0.647125244140625,-0.761962890625,0.03131103515625
1790521814494767600,4.845767578125,-0.64556884765625,-0.75506591796875,0.0259857177734375
1790521814504769500,4.85576953125,-0.64862060546875,-0.7559356689453125,0.00958251953125
1790521814514772700,4.865772705078125,-0.663055419921875,-0.76708984375,0.0004425048828125
1790521814524775700,4.875775634765625,-0.679290771484375,-0.78070068359375,-0.001312255859375
1790521814534778600,4.885778564453125,-0.6812896728515625,-0.787811279296875,0.003387451171875
1790521814544781600,4.895781494140625,-0.6923980712890625,-0.78924560546875,0.0162506103515625
1790521814554783500,4.905783447265625,-0.686920166015625,-0.786346435546875,0.0224151611328125
1790521814564786700,4.91578662109375,-0.6722259521484375,-0.77984619140625,0.0218353271484375
1790521814574790000,4.925789794921875,-0.6615447998046875,-0.765899658203125,0.0181732177734375
1790521814584792600,4.93579248046875,-0.6458282470703125,-0.7596588134765625,0.0192413330078125
1790521814594794800,4.945794677734375,-0.6412506103515625,-0.7673187255859375,0.018951416015625
1790521814604797700,4.955797607421875,-0.6438446044921875,-0.775909423828125,0.019622802734375
1790521814614800600,4.965800537109375,-0.6468505859375,-0.784332275390625,0.028717041015625
1790521814624803800,4.975803955078125,-0.6564483642578125,-0.788909912109375,0.04083251953125
1790521814634806500,4.985806640625,-0.6621246337890625,-0.7911224365234375,0.0395965576171875
1790521814644808700,4.99580859375,-0.657073974609375,-0.7847747802734375,0.024017333984375
1790521814654811600,5.005811767578125,-0.64483642578125,-0.77337646484375,0.010345458984375
1790521814664814600,5.015814697265625,-0.635589599609375,-0.7657012939453125,0.0061798095703125
1790521814674817500,5.025817626953125,-0.6307373046875,-0.76641845703125,0.006622314453125
1790521814684819700,5.03581982421875,-0.6356964111328125,-0.771026611328125,0.010101318359375
1790521814694822700,5.04582275390625,-0.6486663818359375,-0.7635955810546875,0.0157928466796875
1790521814704825600,5.05582568359375,-0.6670684814453125,-0.7624969482421875,0.02740478515625
1790521814714828800,5.065828857421875,-0.6778564453125,-0.7761077880859375,0.03302001953125
1790521814724831500,5.07583154296875,-0.6933441162109375,-0.78680419921875,0.026336669921875
1790521814734833700,5.085833740234375,-0.707244873046875,-0.77252197265625,0.0065765380859375
1790521814744836600,5.095836669921875,-0.6009521484375,-0.772247314453125,0.0102386474609375
1790521814754839600,5.105839599609375,-0.6691741943359375,-0.7830657958984375,0.0290985107421875
1790521814764842800,5.1158427734375,-0.7167816162109375,-0.77001953125,0.045074462890625
1790521814774845700,5.125845703125,-0.705322265625,-0.7792205810546875,0.0446014404296875
1790521814784847600,5.13584765625,-0.68682861328125,-0.7939300537109375,0.0374908447265625
1790521814794850600,5.1458505859375,-0.6553497314453125,-0.781890869140625,0.031951904296875
1790521814804853800,5.155853759765625,-0.6439056396484375,-0.75775146484375,0.0244598388671875
1790521814814856700,5.165856689453125,-0.642547607421875,-0.73992919921875,0.016357421875
1790521814824858600,5.175858642578125,-0.6316986083984375,-0.7412567138671875,0.014007568359375
1790521814834861800,5.18586181640625,-0.6366424560546875,-0.7536468505859375,0.0204010009765625
1790521814844864500,5.195864501953125,-0.6544189453125,-0.759674072265625,0.0236358642578125
1790521814854867700,5.20586767578125,-0.662567138671875,-0.762603759765625,0.02227783203125
1790521814864871000,5.215870849609375,-0.665313720703125,-0.762054443359375,0.0313873291015625
1790521814874872600,5.22587255859375,-0.6547698974609375,-0.74249267578125,0.0328216552734375
1790521814884875800,5.235875732421875,-0.623077392578125,-0.7107086181640625,0.0182952880859375
1790521814894878700,5.245878662109375,-0.5998687744140625,-0.70318603515625,0.0192413330078125
1790521814904881700,5.255881591796875,-0.5893707275390625,-0.70953369140625,0.012054443359375
1790521814914883600,5.265883544921875,-0.589996337890625,-0.715789794921875,-0.002227783203125
1790521814924886800,5.27588671875,-0.61334228515625,-0.727081298828125,-0.0093841552734375
1790521814934889500,5.285889404296875,-0.6538543701171875,-0.735504150390625,-0.002227783203125
1790521814944892700,5.295892578125,-0.673858642578125,-0.7413482666015625,0.00433349609375
1790521814954894800,5.305894775390625,-0.6866912841796875,-0.7440948486328125,0.0028839111328125
1790521814964897500,5.3158974609375,-0.690277099609375,-0.752349853515625,-0.006439208984375
1790521814974900700,5.325900634765625,-0.6782073974609375,-0.7574462890625,-0.013824462890625
1790521814984903700,5.335903564453125,-0.6590118408203125,-0.761505126953125,-0.00927734375
1790521814994906600,5.34590673828125,-0.65203857421875,-0.7673492431640625,0.0010833740234375
1790521815004908500,5.355908447265625,-0.6540374755859375,-0.771392822265625,0.0071258544921875
1790521815014911700,5.365911865234375,-0.652435302734375,-0.7721099853515625,0.01824951171875
1790521815024914700,5.375914794921875,-0.6513519287109375,-0.75506591796875,0.0181732177734375
1790521815034917600,5.385917724609375,-0.64447021484375,-0.732086181640625,0.02081298828125
1790521815044920600,5.395920654296875,-0.639495849609375,-0.7257537841796875,0.0185546875
1790521815054922500,5.405922607421875,-0.6298370361328125,-0.731231689453125,0.0129547119140625
1790521815064925700,5.41592578125,-0.6144256591796875,-0.735931396484375,0.0157623291015625
1790521815074928600,5.4259287109375,-0.61236572265625,-0.7398529052734375,0.0244598388671875
1790521815084931600,5.435931640625,-0.621429443359375,-0.7424163818359375,0.0305633544921875
1790521815094933800,5.445933837890625,-0.6168975830078125,-0.7448883056640625,0.0268402099609375
1790521815104936700,5.455936767578125,-0.608428955078125,-0.746368408203125,0.0279541015625
1790521815114939600,5.465939697265625,-0.62457275390625,-0.753662109375,0.0230712890625
1790521815124942800,5.47594287109375,-0.650482177734375,-0.7505950927734375,0.00732421875
1790521815134944800,5.48594482421875,-0.608001708984375,-0.71807861328125,0.031494140625
1790521815144947700,5.49594775390625,-0.6354217529296875,-0.7453765869140625,0.0236663818359375
1790521815154950700,5.50595068359375,-0.6533966064453125,-0.777587890625,-0.0089111328125
1790521815164953600,5.51595361328125,-0.623016357421875,-0.764862060546875,-0.0101776123046875
1790521815174956500,5.52595654296875,-0.62457275390625,-0.7414093017578125,0.0104217529296875
1790521815184958700,5.535958740234375,-0.60418701171875,-0.722412109375,0.0115814208984375
1790521815194961700,5.545961669921875,-0.582733154296875,-0.712158203125,-0.003875732421875
1790521815204964600,5.555964599609375,-0.5889892578125,-0.719268798828125,-0.0076446533203125
1790521815214967800,5.5659677734375,-0.6108856201171875,-0.7389068603515625,-0.006103515625
1790521815224969700,5.5759697265625,-0.63531494140625,-0.7559661865234375,-0.0052490234375
1790521815234972700,5.58597265625,-0.6606903076171875,-0.77392578125,0.00469970703125
1790521815244975600,5.5959755859375,-0.67340087890625,-0.7887420654296875,0.019989013671875
1790521815254978600,5.605978515625,-0.67962646484375,-0.7930145263671875,0.0252838134765625
1790521815264981800,5.615981689453125,-0.6717987060546875,-0.7843170166015625,0.0111236572265625
1790521815274983700,5.625983642578125,-0.64923095703125,-0.77288818359375,0.00048828125
1790521815284986600,5.635986572265625,-0.628173828125,-0.7675323486328125,0.0050811767578125
1790521815294989600,5.645989501953125,-0.6114501953125,-0.764434814453125,0.01409912109375
1790521815304992800,5.65599267578125,-0.598052978515625,-0.7666778564453125,0.0191650390625
1790521815314994700,5.66599462890625,-0.603759765625,-0.7759857177734375,0.024078369140625
1790521815324997600,5.67599755859375,-0.611236572265625,-0.7867279052734375,0.0232696533203125
1790521815335000800,5.686000732421875,-0.6138763427734375,-0.7928619384765625,0.022430419921875
1790521815345003500,5.69600341796875,-0.6194000244140625,-0.7927703857421875,0.0186767578125
1790521815355005700,5.706005615234375,-0.6232757568359375,-0.7900238037109375,0.0117645263671875
1790521815365008600,5.716008544921875,-0.6251220703125,-0.7912750244140625,0.0031890869140625
1790521815375011600,5.726011474609375,-0.6223602294921875,-0.79608154296875,0.004486083984375
1790521815385014800,5.736014892578125,-0.6148834228515625,-0.7925872802734375,0.0147552490234375
1790521815395017700,5.746017822265625,-0.6240081787109375,-0.78515625,0.019622802734375
1790521815405019600,5.75601953125,-0.6342010498046875,-0.77783203125,0.017181396484375
1790521815415022600,5.766022705078125,-0.64434814453125,-0.7779541015625,0.0099029541015625
1790521815425025500,5.776025634765625,-0.65301513671875,-0.7902374267578125,0.0098114013671875
1790521815435028500,5.786028564453125,-0.6700286865234375,-0.8026123046875,0.0120849609375
1790521815445030400,5.796030517578125,-0.68194580078125,-0.8127899169921875,0.0193023681640625
1790521815455033600,5.80603369140625,-0.6840362548828125,-0.8217010498046875,0.021331787109375
1790521815465036500,5.81603662109375,-0.6754302978515625,-0.8236236572265625,0.0161895751953125
1790521815475039500,5.82603955078125,-0.6612701416015625,-0.82464599609375,0.018096923828125
1790521815485042700,5.836042724609375,-0.6388092041015625,-0.8330230712890625,0.028350830078125
1790521815495044400,5.84604443359375,-0.6277618408203125,-0.842742919921875,0.032257080078125
1790521815505047600,5.856047607421875,-0.6228179931640625,-0.8430023193359375,0.0233001708984375
1790521815515050800,5.86605078125,-0.630645751953125,-0.8436126708984375,0.0197906494140625
1790521815525053400,5.876053466796875,-0.6427459716796875,-0.8485260009765625,0.03399658203125
1790521815535055600,5.8860556640625,-0.644378662109375,-0.8428497314453125,0.0472869873046875
1790521815545058600,5.89605859375,-0.6269073486328125,-0.8289031982421875,0.05377197265625
1790521815555061500,5.9060615234375,-0.6054229736328125,-0.8111572265625,0.0436553955078125
1790521815565064400,5.916064453125,-0.5913848876953125,-0.7982177734375,0.021087646484375
1790521815575067600,5.926067626953125,-0.5477752685546875,-0.795928955078125,0.009033203125
1790521815585069600,5.936069580078125,-0.4049224853515625,-0.787872314453125,0.0438995361328125
1790521815595072500,5.946072509765625,-0.6340484619140625,-0.8014068603515625,0.033966064453125
1790521815605075700,5.95607568359375,-0.5975341796875,-0.835357666015625,-0.009735107421875
1790521815615078400,5.966078369140625,-0.5518798828125,-0.8520355224609375,-0.024871826171875
1790521815625080600,5.97608056640625,-0.6363525390625,-0.8270111083984375,-0.0170135498046875
1790521815635083500,5.98608349609375,-0.672149658203125,-0.800994873046875,0.00091552734375
1790521815645086500,5.99608642578125,-0.659698486328125,-0.798492431640625,0.0248565673828125
1790521815655089700,6.006089599609375,-0.659088134765625,-0.79876708984375,0.03192138671875
1790521815665092400,6.01609228515625,-0.6897125244140625,-0.7869720458984375,0.0076446533203125
1790521815675094500,6.026094482421875,-0.7142791748046875,-0.775421142578125,-0.0218658447265625
1790521815685097500,6.036097412109375,-0.7171630859375,-0.779693603515625,-0.018310546875
1790521815695100700,6.0461005859375,-0.6846923828125,-0.790313720703125,-0.0120849609375
1790521815705103600,6.056103515625,-0.6558685302734375,-0.803497314453125,-0.0044097900390625
1790521815715105500,6.06610546875,-0.6491546630859375,-0.8175506591796875,0.00384521484375
1790521815725108700,6.076108642578125,-0.642425537109375,-0.8241119384765625,-0.001678466796875
1790521815735111400,6.086111328125,-0.6090850830078125,-0.8253631591796875,-0.0019683837890625
1790521815745114600,6.096114501953125,-0.5830078125,-0.8177337646484375,0.0103912353515625
1790521815755117600,6.10611767578125,-0.567840576171875,-0.8012542724609375,0.0111846923828125
1790521815765119500,6.116119384765625,-0.5616912841796875,-0.7898712158203125,0.006500244140625
1790521815775122700,6.126122802734375,-0.5514984130859375,-0.7893218994140625,0.01263427734375
1790521815785125400,6.13612548828125,-0.5497283935546875,-0.791656494140625,0.02252197265625
1790521815795128600,6.146128662109375,-0.55902099609375,-0.7939605712890625,0.0305633544921875
1790521815805130500,6.156130615234375,-0.58251953125,-0.7873992919921875,0.0327301025390625
1790521815815133700,6.1661337890625,-0.601806640625,-0.77337646484375,0.0331878662109375
1790521815825136600,6.17613671875,-0.6031951904296875,-0.759674072265625,0.03326416015625
1790521815835139600,6.1861396484375,-0.611053466796875,-0.7525177001953125,0.033172607421875
1790521815845141800,6.196141845703125,-0.620758056640625,-0.7522430419921875,0.026885986328125
1790521815855144400,6.20614453125,-0.6321868896484375,-0.7638702392578125,0.01165771484375
1790521815865147600,6.216147705078125,-0.63311767578125,-0.78411865234375,-0.0051727294921875
1790521815875150300,6.226150390625,-0.64007568359375,-0.8011627197265625,-0.009521484375
1790521815885153500,6.236153564453125,-0.6515045166015625,-0.8075714111328125,-0.0057220458984375
1790521815895155500,6.246155517578125,-0.66412353515625,-0.800048828125,-0.0131378173828125
1790521815905158400,6.256158447265625,-0.6534423828125,-0.79180908203125,-0.032806396484375
1790521815915161600,6.26616162109375,-0.6361236572265625,-0.7990264892578125,-0.0420379638671875
1790521815925164500,6.27616455078125,-0.6139678955078125,-0.808837890625,-0.0307769775390625
1790521815935166700,6.286166748046875,-0.6079559326171875,-0.8199920654296875,-0.0171966552734375
1790521815945169400,6.29616943359375,-0.60498046875,-0.8130340576171875,-0.010467529296875
1790521815955172600,6.306172607421875,-0.5846405029296875,-0.7982025146484375,-0.006683349609375
1790521815965175600,6.316175537109375,-0.4872894287109375,-0.7570953369140625,0.0143585205078125
1790521815975178500,6.326178466796875,-0.549041748046875,-0.75628662109375,0.024566650390625
1790521815985180700,6.3361806640625,-0.5700225830078125,-0.7787933349609375,-0.0037841796875
1790521815995183400,6.346183349609375,-0.5417327880859375,-0.775665283203125,-0.01165771484375
1790521816005186600,6.3561865234375,-0.5576324462890625,-0.7544097900390625,0.0161895751953125
1790521816015189800,6.366189697265625,-0.574432373046875,-0.735992431640625,0.0294342041015625
1790521816025191400,6.37619140625,-0.6174774169921875,-0.7304840087890625,0.0152740478515625
1790521816035194600,6.386194580078125,-0.689117431640625,-0.7319183349609375,-0.0096282958984375
1790521816045197600,6.396197509765625,-0.6670684814453125,-0.72998046875,-0.0143585205078125
1790521816055200500,6.406200439453125,-0.6746368408203125,-0.725616455078125,-0.0087738037109375
1790521816065203500,6.416203369140625,-0.6882476806640625,-0.723724365234375,-0.008575439453125
1790521816075205600,6.42620556640625,-0.6794281005859375,-0.7183685302734375,-0.017364501953125
1790521816085208600,6.43620849609375,-0.6591339111328125,-0.723907470703125,-0.01483154296875
1790521816095211500,6.44621142578125,-0.656219482421875,-0.723052978515625,-0.01824951171875
1790521816105214700,6.456214599609375,-0.645965576171875,-0.7091522216796875,-0.0384368896484375
1790521816115216400,6.46621630859375,-0.6301116943359375,-0.683990478515625,-0.047821044921875
1790521816125219600,6.476219482421875,-0.6263580322265625,-0.6703643798828125,-0.05035400390625
1790521816135222500,6.486222412109375,-0.619293212890625,-0.6751861572265625,-0.0508575439453125
1790521816145225500,6.4962255859375,-0.6165771484375,-0.692230224609375,-0.0587615966796875
1790521816155228700,6.506228759765625,-0.605438232421875,-0.7161712646484375,-0.068389892578125
1790521816165230600,6.516230712890625,-0.6017303466796875,-0.7511749267578125,-0.064666748046875
1790521816175233500,6.526233642578125,-0.605072021484375,-0.786712646484375,-0.06353759765625
1790521816185236500,6.536236572265625,-0.612335205078125,-0.8102264404296875,-0.0651702880859375
1790521816195239400,6.546239501953125,-0.6147003173828125,-0.830413818359375,-0.0516815185546875
1790521816205241300,6.556241455078125,-0.604583740234375,-0.8380584716796875,-0.0363922119140625
1790521816215244500,6.56624462890625,-0.5984039306640625,-0.829620361328125,-0.0294342041015625
1790521816225247700,6.576247802734375,-0.5940399169921875,-0.815185546875,-0.0321502685546875
1790521816235250400,6.58625048828125,-0.5872039794921875,-0.7974395751953125,-0.029937744140625
1790521816245253600,6.596253662109375,-0.5904541015625,-0.786651611328125,-0.0075836181640625
1790521816255255600,6.606255615234375,-0.6154327392578125,-0.77130126953125,0.0086212158203125
1790521816265258500,6.616258544921875,-0.645233154296875,-0.7523345947265625,0.012298583984375
1790521816275261700,6.62626171875,-0.6645050048828125,-0.72967529296875,0.0103607177734375
1790521816285264400,6.636264404296875,-0.65484619140625,-0.7138824462890625,0.0178070068359375
1790521816295266600,6.6462666015625,-0.6656036376953125,-0.6973724365234375,0.0238800048828125
1790521816305269500,6.65626953125,-0.692474365234375,-0.6895599365234375,0.0196533203125
1790521816315272400,6.6662724609375,-0.6831512451171875,-0.6964111328125,0.0099334716796875
1790521816325275600,6.676275634765625,-0.70257568359375,-0.728057861328125,0.005889892578125
1790521816335278600,6.686278564453125,-0.7047882080078125,-0.7644195556640625,-0.001312255859375
1790521816345280800,6.69628076171875,-0.6981658935546875,-0.7903289794921875,-0.0120391845703125
1790521816355283500,6.706283447265625,-0.69818115234375,-0.8028717041015625,-0.0186004638671875
1790521816365286700,6.71628662109375,-0.6728057861328125,-0.803955078125,-0.0309600830078125
1790521816375289300,6.726289306640625,-0.6360321044921875,-0.797393798828125,-0.039764404296875
1790521816385291500,6.73629150390625,-0.6031494140625,-0.7938232421875,-0.0375518798828125
1790521816395294500,6.74629443359375,-0.576324462890625,-0.7982940673828125,-0.0250091552734375
1790521816405297400,6.75629736328125,-0.55804443359375,-0.8054046630859375,-0.012176513671875
1790521816415300600,6.766300537109375,-0.5701446533203125,-0.8173065185546875,-0.00360107421875
1790521816425303600,6.776303466796875,-0.5914459228515625,-0.8323211669921875,0.0008544921875
1790521816435305500,6.786305419921875,-0.6157684326171875,-0.831512451171875,0.01611328125
1790521816445308400,6.796308349609375,-0.643341064453125,-0.8206634521484375,0.029296875
1790521816455311600,6.8063115234375,-0.66131591796875,-0.802520751953125,0.0381011962890625
1790521816465314600,6.816314453125,-0.6851959228515625,-0.7806243896484375,0.045806884765625
1790521816475316500,6.82631640625,-0.70703125,-0.7613372802734375,0.046630859375
1790521816485319700,6.836319580078125,-0.720489501953125,-0.7462005615234375,0.0425567626953125
1790521816495322400,6.846322265625,-0.7223358154296875,-0.7363433837890625,0.042388916015625
1790521816505325600,6.85632568359375,-0.7197723388671875,-0.7344207763671875,0.0428009033203125
1790521816515328800,6.866328857421875,-0.7202606201171875,-0.7406768798828125,0.0404205322265625
1790521816525330400,6.876330322265625,-0.711395263671875,-0.7533416748046875,0.0332794189453125
1790521816535333600,6.886333740234375,-0.6868133544921875,-0.76824951171875,0.017242431640625
1790521816545336600,6.896336669921875,-0.6619110107421875,-0.782257080078125,0.0001373291015625
1790521816555339500,6.906339599609375,-0.6463470458984375,-0.7934722900390625,-0.0137939453125
1790521816565342500,6.916342529296875,-0.635223388671875,-0.8087615966796875,-0.0192413330078125
1790521816575344600,6.9263447265625,-0.6295623779296875,-0.825531005859375,-0.0267486572265625
1790521816585347600,6.93634765625,-0.6266937255859375,-0.8362579345703125,-0.0319061279296875
1790521816595350500,6.9463505859375,-0.61578369140625,-0.8341827392578125,-0.0411834716796875
1790521816605353500,6.956353515625,-0.623138427734375,-0.82568359375,-0.046356201171875
1790521816615355400,6.96635546875,-0.6225128173828125,-0.813812255859375,-0.0398712158203125
1790521816625358600,6.976358642578125,-0.6289825439453125,-0.8050994873046875,-0.023162841796875
1790521816635361500,6.986361572265625,-0.6417694091796875,-0.7950897216796875,-0.0043182373046875
1790521816645364500,6.996364501953125,-0.6581268310546875,-0.778106689453125,0.0060272216796875
1790521816655367700,7.00636767578125,-0.6768798828125,-0.7632293701171875,0.0091400146484375
1790521816665369600,7.01636962890625,-0.6691131591796875,-0.7506561279296875,0.0244598388671875
1790521816675372500,7.02637255859375,-0.6908721923828125,-0.743621826171875,0.033905029296875
1790521816685375500,7.03637548828125,-0.6945953369140625,-0.7402496337890625,0.031707763671875
1790521816695378400,7.04637841796875,-0.709014892578125,-0.7395477294921875,0.0386810302734375
1790521816705380400,7.05638037109375,-0.71063232421875,-0.7435455322265625,0.044677734375
1790521816715383600,7.066383544921875,-0.6942596435546875,-0.745880126953125,0.0415191650390625
1790521816725386500,7.076386474609375,-0.6810150146484375,-0.7535247802734375,0.0418853759765625
1790521816735389400,7.086389404296875,-0.6700286865234375,-0.7633056640625,0.036956787109375
1790521816745392600,7.096392578125,-0.6595916748046875,-0.7799530029296875,0.026397705078125
1790521816755394600,7.10639453125,-0.6558685302734375,-0.786102294921875,0.0204925537109375
1790521816765397500,7.1163974609375,-0.64422607421875,-0.7783203125,0.014068603515625
1790521816775400700,7.126400634765625,-0.618011474609375,-0.7705230712890625,0.0096282958984375
1790521816785403400,7.1364033203125,-0.5982513427734375,-0.7670745849609375,0.0037841796875
1790521816795406600,7.146406494140625,-0.5783843994140625,-0.7702178955078125,-0.00250244140625
1790521816805408500,7.156408447265625,-0.5703277587890625,-0.774444580078125,-0.004119873046875
1790521816815411500,7.166411376953125,-0.59173583984375,-0.771942138671875,-0.003021240234375
1790521816825414700,7.17641455078125,-0.602386474609375,-0.7769012451171875,0.0109100341796875
1790521816835417600,7.18641748046875,-0.61431884765625,-0.77203369140625,0.0280303955078125
1790521816845419500,7.19641943359375,-0.6249237060546875,-0.756378173828125,0.036651611328125
1790521816855422500,7.20642236328125,-0.63323974609375,-0.7382354736328125,0.04022216796875
1790521816865425700,7.21642578125,-0.6496124267578125,-0.7294464111328125,0.028839111328125
1790521816875428400,7.226428466796875,-0.6407623291015625,-0.72259521484375,0.0229339599609375
1790521816885431600,7.236431640625,-0.6539154052734375,-0.71337890625,0.04351806640625
1790521816895433500,7.24643359375,-0.6726837158203125,-0.71844482421875,0.0478973388671875
1790521816905436400,7.2564365234375,-0.697479248046875,-0.7344818115234375,0.035675048828125
1790521816915439600,7.266439697265625,-0.709503173828125,-0.7425384521484375,0.023712158203125
1790521816925442600,7.276442626953125,-0.6961517333984375,-0.746795654296875,0.0214385986328125
1790521816935445500,7.286445556640625,-0.6710052490234375,-0.7540740966796875,0.0272216796875
1790521816945447400,7.296447509765625,-0.665069580078125,-0.764862060546875,0.0294952392578125
1790521816955450600,7.30645068359375,-0.6544036865234375,-0.7568359375,0.0147705078125
1790521816965453600,7.31645361328125,-0.66778564453125,-0.746246337890625,-0.0065460205078125
1790521816975456500,7.32645654296875,-0.6304931640625,-0.76031494140625,0.00433349609375
1790521816985458700,7.336458740234375,-0.5880889892578125,-0.7618408203125,0.015533447265625
1790521816995461400,7.34646142578125,-0.581329345703125,-0.7509002685546875,0.00439453125
1790521817005464600,7.356464599609375,-0.57672119140625,-0.7454071044921875,-0.0059814453125
1790521817015467500,7.366467529296875,-0.5685882568359375,-0.743988037109375,-0.0036163330078125
1790521817025470500,7.376470458984375,-0.5758209228515625,-0.7445220947265625,0.000518798828125
1790521817035472600,7.38647265625,-0.586944580078125,-0.7433624267578125,-0.0028228759765625
1790521817045475600,7.3964755859375,-0.60272216796875,-0.752838134765625,0.0028533935546875
1790521817055478500,7.406478515625,-0.6221923828125,-0.7662811279296875,0.0155181884765625
1790521817065481500,7.4164814453125,-0.6310577392578125,-0.7584686279296875,0.023406982421875
1790521817075484400,7.426484375,-0.6369781494140625,-0.743560791015625,0.029052734375
1790521817085486600,7.436486572265625,-0.6389312744140625,-0.736846923828125,0.02410888671875
1790521817095489500,7.446489501953125,-0.645751953125,-0.738128662109375,0.023956298828125
1790521817105492500,7.456492431640625,-0.6598968505859375,-0.7352142333984375,0.01788330078125
1790521817115495400,7.466495361328125,-0.6673126220703125,-0.73016357421875,0.0186309814453125
1790521817125497600,7.47649755859375,-0.6682891845703125,-0.7335052490234375,0.030609130859375
1790521817135500500,7.48650048828125,-0.6577606201171875,-0.7403411865234375,0.0304107666015625
1790521817145503500,7.49650341796875,-0.63134765625,-0.7478485107421875,0.0316925048828125
1790521817155506700,7.506506591796875,-0.6219940185546875,-0.7484893798828125,0.024383544921875
1790521817165509400,7.51650927734375,-0.620880126953125,-0.75543212890625,0.0180511474609375
1790521817175511600,7.526511474609375,-0.6215972900390625,-0.770904541015625,0.0192718505859375
1790521817185514500,7.536514404296875,-0.63134765625,-0.783905029296875,0.0198822021484375
1790521817195517400,7.546517333984375,-0.6428070068359375,-0.7874298095703125,0.0247802734375
1790521817205520600,7.556520751953125,-0.64239501953125,-0.78839111328125,0.029541015625
1790521817215523600,7.566523681640625,-0.6408843994140625,-0.7871246337890625,0.0275421142578125
1790521817225525500,7.576525390625,-0.62213134765625,-0.7722015380859375,0.032470703125
1790521817235528400,7.586528564453125,-0.59490966796875,-0.758087158203125,0.035003662109375
1790521817245531600,7.59653173828125,-0.571929931640625,-0.7514801025390625,0.0418548583984375
1790521817255534600,7.60653466796875,-0.560943603515625,-0.74859619140625,0.0419158935546875
1790521817265536500,7.61653662109375,-0.570098876953125,-0.7449798583984375,0.0302886962890625
1790521817275539700,7.626539794921875,-0.599334716796875,-0.7500152587890625,0.026275634765625
1790521817285542400,7.63654248046875,-0.6230621337890625,-0.7671661376953125,0.0286407470703125
1790521817295545600,7.646545654296875,-0.638580322265625,-0.7751922607421875,0.0327606201171875
1790521817305548500,7.656548583984375,-0.6574249267578125,-0.77581787109375,0.0251007080078125
1790521817315550500,7.666550537109375,-0.6580352783203125,-0.7793121337890625,0.0176239013671875
1790521817325553700,7.6765537109375,-0.6508941650390625,-0.7864532470703125,0.016204833984375
1790521817335556600,7.686556640625,-0.674407958984375,-0.80517578125,0.0118255615234375
1790521817345559600,7.6965595703125,-0.7022247314453125,-0.8264617919921875,0.013885498046875
1790521817355562500,7.7065625,-0.7037506103515625,-0.8368682861328125,0.015289306640625
1790521817365564700,7.716564697265625,-0.712310791015625,-0.8446044921875,0.02008056640625
1790521817375567400,7.7265673828125,-0.692962646484375,-0.8614044189453125,0.0319366455078125
1790521817385570600,7.736570556640625,-0.6838531494140625,-0.85504150390625,0.042572021484375
1790521817395573500,7.746573486328125,-0.6999969482421875,-0.832733154296875,0.0177459716796875
1790521817405575400,7.756575439453125,-0.680908203125,-0.8448333740234375,0.0221710205078125
1790521817415578600,7.76657861328125,-0.61492919921875,-0.851348876953125,0.046417236328125
1790521817425581300,7.776581298828125,-0.583740234375,-0.799713134765625,0.0189361572265625
1790521817435584300,7.786584228515625,-0.5721435546875,-0.7973175048828125,0.0251312255859375
1790521817445587200,7.796587158203125,-0.5380706787109375,-0.7487640380859375,0.0437774658203125
1790521817455589400,7.80658935546875,-0.5464630126953125,-0.653472900390625,0.0346527099609375
1790521817465592000,7.816592041015625,-0.54736328125,-0.719696044921875,-0.000274658203125
1790521817475595300,7.82659521484375,-0.587982177734375,-0.8073883056640625,-0.0019989013671875
1790521817485598200,7.83659814453125,-0.6341400146484375,-0.821441650390625,0.0144500732421875
1790521817495601200,7.84660107421875,-0.6649017333984375,-0.7998199462890625,0.0037384033203125
1790521817505603300,7.856603271484375,-0.633087158203125,-0.772308349609375,0.00799560546875
1790521817515606300,7.866606201171875,-0.6263580322265625,-0.7534637451171875,0.0153350830078125
1790521817525609200,7.876609130859375,-0.6595458984375,-0.769195556640625,0.0164947509765625
1790521817535612200,7.886612060546875,-0.624664306640625,-0.7823944091796875,-0.003173828125
1790521817545615000,7.896614990234375,-0.6371002197265625,-0.786407470703125,-0.0498504638671875
1790521817555617000,7.906616943359375,-0.6785736083984375,-0.8989715576171875,0.024444580078125
1790521817565620200,7.9166201171875,-0.67266845703125,-0.879791259765625,0.01483154296875
1790521817575623200,7.926623046875,-0.64495849609375,-0.7339324951171875,-0.091766357421875
1790521817585626000,7.936626220703125,-0.6809234619140625,-0.77398681640625,-0.0223388671875
1790521817595628300,7.946628173828125,-0.7078399658203125,-0.8514251708984375,0.021484375
1790521817605631200,7.95663134765625,-0.6729888916015625,-0.8291778564453125,0.0069580078125
1790521817615634200,7.96663427734375,-0.665252685546875,-0.7647705078125,-0.009033203125
1790521817625637400,7.976637451171875,-0.6847686767578125,-0.7465057373046875,-0.0006561279296875
1790521817635640000,7.98664013671875,-0.6880035400390625,-0.7782440185546875,0.003570556640625
1790521817645642200,7.996642333984375,-0.6708831787109375,-0.7938232421875,-0.006591796875
1790521817655645200,8.006645263671874,-0.645904541015625,-0.7816925048828125,-0.010223388671875
1790521817665648000,8.016648193359375,-0.63336181640625,-0.7734527587890625,-0.007110595703125
1790521817675651300,8.0266513671875,-0.6330718994140625,-0.781036376953125,-0.001708984375
1790521817685654300,8.036654296875,-0.621917724609375,-0.7747802734375,0.003448486328125
1790521817695656200,8.04665625,-0.61285400390625,-0.7540435791015625,0.009307861328125
1790521817705659100,8.0566591796875,-0.603790283203125,-0.7555084228515625,0.0159912109375
1790521817715662300,8.066662353515625,-0.5789337158203125,-0.77239990234375,0.0166015625
1790521817725665000,8.0766650390625,-0.5675201416015625,-0.78033447265625,0.0153045654296875
1790521817735668200,8.086668212890626,-0.569366455078125,-0.7851715087890625,0.0162353515625
1790521817745670400,8.09667041015625,-0.5809173583984375,-0.79364013671875,0.0224456787109375
1790521817755673000,8.106673095703124,-0.5939178466796875,-0.796478271484375,0.02777099609375
1790521817765676300,8.11667626953125,-0.6017303466796875,-0.7929534912109375,0.02935791015625
1790521817775679200,8.12667919921875,-0.6007537841796875,-0.7839813232421875,0.02459716796875
1790521817785682200,8.13668212890625,-0.602081298828125,-0.7745513916015625,0.0188140869140625
1790521817795684000,8.14668408203125,-0.6116943359375,-0.7732696533203125,0.0174713134765625
1790521817805687300,8.156687255859374,-0.6190643310546875,-0.775177001953125,0.011627197265625
1790521817815690200,8.166690185546875,-0.6361846923828125,-0.7791748046875,0.0138702392578125
1790521817825693200,8.176693115234375,-0.648284912109375,-0.7832489013671875,0.0263214111328125
1790521817835695400,8.1866953125,-0.65399169921875,-0.7850799560546875,0.0453338623046875
1790521817845698000,8.196697998046876,-0.6557464599609375,-0.7824249267578125,0.0602569580078125
1790521817855701200,8.206701171875,-0.6416473388671875,-0.776031494140625,0.071563720703125
1790521817865704200,8.2167041015625,-0.6242218017578125,-0.772796630859375,0.0787353515625
1790521817875707100,8.22670703125,-0.6138916015625,-0.7722930908203125,0.0767974853515625
1790521817885709300,8.236709228515625,-0.59893798828125,-0.768829345703125,0.0724029541015625
1790521817895712300,8.246712158203126,-0.5882415771484375,-0.7621917724609375,0.0651702880859375
1790521817905715200,8.256715087890624,-0.579620361328125,-0.76385498046875,0.0556793212890625
1790521817915718400,8.266718505859375,-0.5720062255859375,-0.7722930908203125,0.0495758056640625
1790521817925721000,8.27672119140625,-0.5733489990234375,-0.7741546630859375,0.047454833984375
1790521817935723300,8.28672314453125,-0.5763092041015625,-0.7717132568359375,0.040283203125
1790521817945726200,8.296726318359376,-0.57379150390625,-0.764373779296875,0.035888671875
1790521817955729200,8.306729248046874,-0.5748748779296875,-0.758544921875,0.034393310546875
1790521817965732000,8.316732177734375,-0.584136962890625,-0.7598724365234375,0.0294342041015625
1790521817975735300,8.3267353515625,-0.585784912109375,-0.7601165771484375,0.0173492431640625
1790521817985737200,8.3367373046875,-0.576416015625,-0.75189208984375,0.00054931640625
1790521817995740200,8.346740234375,-0.5774993896484375,-0.7431488037109375,-0.00958251953125
1790521818005743400,8.356743408203124,-0.5858001708984375,-0.74969482421875,-0.010772705078125
1790521818015746000,8.36674609375,-0.59112548828125,-0.7595977783203125,-0.0180816650390625
1790521818025749200,8.376749267578125,-0.5989227294921875,-0.769378662109375,-0.0165863037109375
1790521818035751200,8.386751220703125,-0.6176605224609375,-0.7798309326171875,-0.0116424560546875
1790521818045754000,8.396754150390626,-0.63140869140625,-0.7924346923828125,-0.0019073486328125
1790521818055757300,8.40675732421875,-0.634613037109375,-0.8023681640625,-0.0020294189453125
1790521818065760300,8.41676025390625,-0.6406097412109375,-0.80609130859375,-0.002593994140625
1790521818075762200,8.42676220703125,-0.6399688720703125,-0.805267333984375,0.0002288818359375
1790521818085765000,8.43676513671875,-0.6226806640625,-0.79486083984375,-0.0008544921875
1790521818095768300,8.446768310546876,-0.60052490234375,-0.784942626953125,-0.0031890869140625
1790521818105771300,8.456771240234374,-0.5926666259765625,-0.7868499755859375,-0.0045166015625
1790521818115774200,8.466774169921875,-0.5854949951171875,-0.8035736083984375,-0.01123046875
1790521818125776400,8.4767763671875,-0.5801849365234375,-0.8253326416015625,-0.0180511474609375
1790521818135779000,8.486779052734375,-0.58831787109375,-0.837493896484375,-0.017730712890625
1790521818145782300,8.4967822265625,-0.596099853515625,-0.8423004150390625,-0.013946533203125
1790521818155785200,8.50678515625,-0.5981903076171875,-0.8303375244140625,0.0005645751953125
1790521818165788200,8.5167880859375,-0.598846435546875,-0.8011322021484375,0.0185089111328125
1790521818175790300,8.526790283203125,-0.6038970947265625,-0.7632904052734375,0.02655029296875
1790521818185793300,8.536793212890625,-0.6008148193359375,-0.731719970703125,0.021697998046875
1790521818195796200,8.546796142578126,-0.59716796875,-0.7215576171875,0.0069732666015625
1790521818205799200,8.556799072265624,-0.604278564453125,-0.727447509765625,-0.004119873046875
1790521818215802000,8.566802001953125,-0.6147308349609375,-0.736175537109375,-0.0092315673828125
1790521818225804000,8.576803955078125,-0.6237945556640625,-0.75030517578125,-0.014434814453125
1790521818235807200,8.58680712890625,-0.6437835693359375,-0.7722930908203125,-0.0110626220703125
1790521818245810200,8.59681005859375,-0.6558990478515625,-0.793212890625,0.0016937255859375
1790521818255813000,8.606813232421874,-0.6607208251953125,-0.805908203125,0.014373779296875
1790521818265816300,8.61681640625,-0.654327392578125,-0.8140716552734375,0.027801513671875
1790521818275818000,8.62681787109375,-0.6357574462890625,-0.8274383544921875,0.0399932861328125
1790521818285821200,8.6368212890625,-0.626495361328125,-0.841400146484375,0.0488433837890625
1790521818295824400,8.646824462890624,-0.6290435791015625,-0.8518218994140625,0.0549774169921875
1790521818305827000,8.6568271484375,-0.62060546875,-0.8591766357421875,0.0584564208984375
1790521818315830300,8.666830322265625,-0.6142425537109375,-0.8614349365234375,0.0579071044921875
1790521818325832200,8.676832275390625,-0.605255126953125,-0.8341827392578125,0.0601654052734375
1790521818335835100,8.686835205078125,-0.6190643310546875,-0.8318634033203125,0.0555572509765625
1790521818345838300,8.69683837890625,-0.61529541015625,-0.8352203369140625,0.047760009765625
1790521818355841300,8.70684130859375,-0.5975799560546875,-0.799163818359375,0.0488128662109375
1790521818365843200,8.71684326171875,-0.5963134765625,-0.7718048095703125,0.04461669921875
1790521818375846100,8.72684619140625,-0.596282958984375,-0.7646484375,0.0333251953125
1790521818385849300,8.736849365234375,-0.599151611328125,-0.755157470703125,0.0174713134765625
1790521818395852300,8.746852294921876,-0.6070709228515625,-0.742462158203125,0.01129150390625
1790521818405855200,8.756855224609374,-0.612457275390625,-0.7401885986328125,0.0082550048828125
1790521818415857400,8.766857421875,-0.615264892578125,-0.7588653564453125,0.0099334716796875
1790521818425860000,8.776860107421875,-0.6277923583984375,-0.78900146484375,0.0098876953125
1790521818435863000,8.786863037109375,-0.6495513916015625,-0.8190765380859375,0.0103607177734375
1790521818445866000,8.796865966796876,-0.668121337890625,-0.8381805419921875,0.0198974609375
1790521818455869200,8.806869140625,-0.670135498046875,-0.8360748291015625,0.034881591796875
1790521818465871000,8.81687109375,-0.6598052978515625,-0.82275390625,0.045074462890625
1790521818475874300,8.826874267578125,-0.6431427001953125,-0.8108978271484375,0.047149658203125
1790521818485877000,8.836876953125,-0.6240081787109375,-0.7996826171875,0.0381011962890625
1790521818495880200,8.846880126953126,-0.6075286865234375,-0.7964630126953125,0.0252838134765625
1790521818505883000,8.8568828125,-0.605560302734375,-0.813201904296875,0.0164947509765625
1790521818515885000,8.866885009765625,-0.62152099609375,-0.8347320556640625,0.0110321044921875
1790521818525888000,8.876887939453125,-0.6240386962890625,-0.8451995849609375,0.013580322265625
1790521818535891000,8.886890869140625,-0.6251220703125,-0.8398284912109375,0.0255584716796875
1790521818545894100,8.89689404296875,-0.620025634765625,-0.8236846923828125,0.0382232666015625
1790521818555897000,8.90689697265625,-0.6140594482421875,-0.803741455078125,0.04437255859375
1790521818565899000,8.91689892578125,-0.618133544921875,-0.7878875732421875,0.0412139892578125
1790521818575902000,8.92690185546875,-0.6058197021484375,-0.77239990234375,0.0321197509765625
1790521818585905200,8.9369052734375,-0.6078033447265625,-0.7620697021484375,0.012664794921875
1790521818595908000,8.946908203125,-0.6214141845703125,-0.7605133056640625,-0.00848388671875
1790521818605911000,8.9569111328125,-0.6295166015625,-0.7596282958984375,-0.0261993408203125
1790521818615913200,8.966913330078125,-0.6270904541015625,-0.7484283447265625,-0.03778076171875
1790521818625916000,8.976916015625,-0.6155242919921875,-0.737060546875,-0.041961669921875
1790521818635919000,8.986919189453126,-0.6091766357421875,-0.7338714599609375,-0.0413360595703125
1790521818645922300,8.99692236328125,-0.6098480224609375,-0.734405517578125,-0.041351318359375
1790521818655925000,9.006925048828125,-0.6080169677734375,-0.7440948486328125,-0.0341796875
1790521818665927200,9.01692724609375,-0.6068878173828125,-0.758941650390625,-0.0211334228515625
1790521818675930000,9.02693017578125,-0.6036834716796875,-0.783447265625,0.0031890869140625
1790521818685933000,9.03693310546875,-0.610198974609375,-0.8001251220703125,0.0203094482421875
1790521818695936300,9.046936279296874,-0.607757568359375,-0.810211181640625,0.0320281982421875
1790521818705938200,9.056938232421874,-0.5966796875,-0.826019287109375,0.0419464111328125
1790521818715941000,9.066941162109375,-0.6075286865234375,-0.8337249755859375,0.0395355224609375
1790521818725944000,9.076944091796875,-0.620330810546875,-0.8279571533203125,0.0406494140625
1790521818735947000,9.086947021484375,-0.612701416015625,-0.810455322265625,0.0444183349609375
1790521818745950000,9.096949951171876,-0.603668212890625,-0.78936767578125,0.0406494140625
1790521818755952000,9.1069521484375,-0.6067657470703125,-0.772796630859375,0.0205078125
1790521818765955000,9.116955078125,-0.61529541015625,-0.7642364501953125,-0.0043792724609375
1790521818775958000,9.1269580078125,-0.61444091796875,-0.7552337646484375,-0.0167388916015625
1790521818785961200,9.136961181640626,-0.6141510009765625,-0.7424468994140625,-0.0174560546875
1790521818795964000,9.1469638671875,-0.6168365478515625,-0.7338104248046875,-0.0092315673828125
1790521818805966000,9.156966064453124,-0.6110992431640625,-0.737274169921875,-0.0071258544921875
1790521818815969000,9.166968994140625,-0.6181793212890625,-0.7512054443359375,-0.01263427734375
1790521818825972000,9.176971923828125,-0.6354217529296875,-0.773162841796875,-0.0094451904296875
1790521818835975200,9.18697509765625,-0.6502227783203125,-0.7903289794921875,0.004486083984375
1790521818845978000,9.19697802734375,-0.6488494873046875,-0.7873382568359375,0.019195556640625
1790521818855980000,9.20697998046875,-0.6439056396484375,-0.7742462158203125,0.0275115966796875
1790521818865983000,9.21698291015625,-0.62957763671875,-0.7651214599609375,0.0362701416015625
1790521818875986200,9.226986083984375,-0.61273193359375,-0.765167236328125,0.038055419921875
1790521818885989000,9.236989013671876,-0.6048736572265625,-0.7681121826171875,0.017822265625
1790521818895992000,9.246991943359374,-0.600555419921875,-0.7837066650390625,0.004241943359375
1790521818905994200,9.256994140625,-0.59130859375,-0.80584716796875,0.0099639892578125
1790521818915997000,9.266996826171875,-0.5970306396484375,-0.8151092529296875,0.0146636962890625
1790521818926000000,9.277000244140625,-0.60150146484375,-0.8074188232421875,0.016021728515625
1790521818936003000,9.287003173828126,-0.58489990234375,-0.798614501953125,0.016693115234375
1790521818946006000,9.297006103515624,-0.575469970703125,-0.79437255859375,0.0138397216796875
1790521818956008200,9.30700830078125,-0.5756683349609375,-0.7864532470703125,0.00299072265625
1790521818966011100,9.31701123046875,-0.5794677734375,-0.7685546875,-0.010589599609375
1790521818976014000,9.32701416015625,-0.591949462890625,-0.7525482177734375,-0.0201568603515625
1790521818986017000,9.33701708984375,-0.6052398681640625,-0.7587738037109375,-0.0263824462890625
1790521818996020000,9.34702001953125,-0.61517333984375,-0.77264404296875,-0.024749755859375
1790521819006022000,9.35702197265625,-0.6294708251953125,-0.780487060546875,-0.0278472900390625
1790521819016025000,9.367025146484375,-0.651947021484375,-0.7845611572265625,-0.02752685546875
1790521819026028000,9.377028076171875,-0.6628265380859375,-0.784027099609375,-0.0205230712890625
1790521819036031000,9.387031005859376,-0.668548583984375,-0.781494140625,-0.0115203857421875
1790521819046034200,9.3970341796875,-0.670074462890625,-0.7816162109375,-0.0099945068359375
1790521819056036000,9.4070361328125,-0.65216064453125,-0.775726318359375,-0.009246826171875
1790521819066039000,9.4170390625,-0.6342620849609375,-0.765716552734375,-0.0048065185546875
1790521819076042200,9.427042236328125,-0.623870849609375,-0.7870941162109375,-0.0144500732421875
1790521819086045000,9.437044921875,-0.6200714111328125,-0.8085479736328125,-0.0205078125
1790521819096048000,9.447048095703124,-0.6158905029296875,-0.8122100830078125,-0.009429931640625
1790521819106050000,9.457050048828124,-0.6042633056640625,-0.809417724609375,0.0032958984375
1790521819116053000,9.467052978515625,-0.58685302734375,-0.8058624267578125,0.006561279296875
1790521819126056200,9.47705615234375,-0.5757904052734375,-0.7919769287109375,-0.0014190673828125
1790521819136059100,9.48705908203125,-0.562774658203125,-0.779296875,-0.010101318359375
1790521819146062000,9.49706201171875,-0.5542755126953125,-0.77630615234375,-0.0217132568359375
1790521819156064000,9.50706396484375,-0.557769775390625,-0.7804412841796875,-0.0350799560546875
1790521819166067200,9.517067138671875,-0.571868896484375,-0.7841796875,-0.041412353515625
1790521819176070000,9.52706982421875,-0.58673095703125,-0.78326416015625,-0.043365478515625
1790521819186073000,9.537072998046876,-0.600189208984375,-0.7826385498046875,-0.0412750244140625
1790521819196076000,9.547075927734374,-0.6063079833984375,-0.784210205078125,-0.0397186279296875
1790521819206078000,9.557077880859374,-0.61737060546875,-0.7914886474609375,-0.042327880859375
1790521819216081200,9.5670810546875,-0.633026123046875,-0.804229736328125,-0.044586181640625
1790521819226084000,9.577083984375,-0.65325927734375,-0.8175048828125,-0.04443359375
1790521819236087000,9.587087158203126,-0.6778717041015625,-0.82861328125,-0.041473388671875
1790521819246090200,9.59709033203125,-0.6929931640625,-0.826263427734375,-0.030548095703125
1790521819256092200,9.607092041015624,-0.69158935546875,-0.810546875,-0.0189666748046875
1790521819266095000,9.61709521484375,-0.674224853515625,-0.7940216064453125,-0.0121307373046875
1790521819276098000,9.62709814453125,-0.6519622802734375,-0.7863922119140625,-0.0143890380859375
1790521819286101000,9.63710107421875,-0.626861572265625,-0.7894439697265625,-0.0244598388671875
1790521819296104200,9.647104248046874,-0.616668701171875,-0.8036041259765625,-0.0378265380859375
1790521819306106000,9.657106201171874,-0.6158905029296875,-0.8207244873046875,-0.04144287109375
1790521819316109000,9.667109130859375,-0.6144256591796875,-0.8310546875,-0.0357513427734375
1790521819326112000,9.677112060546875,-0.6100921630859375,-0.82763671875,-0.02789306640625
1790521819336115200,9.687115234375,-0.603363037109375,-0.81280517578125,-0.0224151611328125
1790521819346118000,9.697117919921874,-0.597747802734375,-0.7982025146484375,-0.019073486328125
1790521819356120000,9.7071201171875,-0.600830078125,-0.7877960205078125,-0.0234832763671875
1790521819366123300,9.717123291015625,-0.601531982421875,-0.7781982421875,-0.0270843505859375
1790521819376126000,9.7271259765625,-0.5988006591796875,-0.78033447265625,-0.0341949462890625
1790521819386129200,9.737129150390626,-0.5912628173828125,-0.79736328125,-0.03692626953125
1790521819396132000,9.747132080078124,-0.5995330810546875,-0.819976806640625,-0.0331573486328125
1790521819406134000,9.757134033203124,-0.6163330078125,-0.84063720703125,-0.028533935546875
1790521819416137000,9.767136962890625,-0.633087158203125,-0.8542938232421875,-0.0202484130859375
1790521819426140200,9.77714013671875,-0.650482177734375,-0.8507537841796875,-0.00469970703125
1790521819436143000,9.78714306640625,-0.6685028076171875,-0.8367919921875,0.0007476806640625
1790521819446146000,9.79714599609375,-0.6679229736328125,-0.824737548828125,-0.0037994384765625
1790521819456148200,9.807148193359374,-0.6568603515625,-0.8105621337890625,-0.0119476318359375
1790521819466151000,9.81715087890625,-0.6534271240234375,-0.79779052734375,-0.027801513671875
1790521819476154000,9.827154052734375,-0.6653594970703125,-0.78704833984375,-0.03631591796875
1790521819486157000,9.837156982421876,-0.672210693359375,-0.779693603515625,-0.0318603515625
1790521819496160000,9.847159912109374,-0.654296875,-0.775390625,-0.021148681640625
1790521819506163200,9.8571630859375,-0.63800048828125,-0.7745208740234375,-0.0128936767578125
1790521819516165000,9.8671650390625,-0.6236419677734375,-0.7804412841796875,-0.018402099609375
1790521819526168000,9.87716796875,-0.6112518310546875,-0.7974090576171875,-0.0235748291015625
1790521819536171000,9.8871708984375,-0.6088104248046875,-0.8070831298828125,-0.0177764892578125
1790521819546174000,9.897174072265624,-0.61126708984375,-0.80712890625,-0.0027008056640625
1790521819556177200,9.90717724609375,-0.610198974609375,-0.80157470703125,0.0150604248046875
1790521819566179000,9.917178955078125,-0.607574462890625,-0.7997589111328125,0.032318115234375
1790521819576182000,9.92718212890625,-0.5977020263671875,-0.7924652099609375,0.036346435546875
1790521819586185000,9.93718505859375,-0.583740234375,-0.7835693359375,0.0245208740234375
1790521819596188200,9.947188232421874,-0.5877532958984375,-0.7780609130859375,0.0146026611328125
1790521819606191000,9.957191162109375,-0.5952911376953125,-0.7725067138671875,0.00445556640625
1790521819616193000,9.967193115234375,-0.5985565185546875,-0.7703857421875,-0.007476806640625
1790521819626196200,9.9771962890625,-0.61102294921875,-0.7725830078125,-0.0149993896484375
1790521819636199000,9.987198974609376,-0.626312255859375,-0.7684326171875,-0.024566650390625
1790521819646202000,9.9972021484375,-0.6370391845703125,-0.7636871337890625,-0.0227813720703125
1790521819656205000,10.007205078125,-0.6382293701171875,-0.75543212890625,-0.0215606689453125
1790521819666207000,10.01720703125,-0.637420654296875,-0.73736572265625,-0.02288818359375
1790521819676210000,10.0272099609375,-0.6231689453125,-0.6982269287109375,-0.0359649658203125
1790521819686213000,10.037213134765626,-0.5920257568359375,-0.6501617431640625,-0.05438232421875
1790521819696216000,10.047216064453124,-0.55291748046875,-0.6090545654296875,-0.0666351318359375
1790521819706219000,10.057218994140625,-0.5218963623046875,-0.586090087890625,-0.0724639892578125
1790521819716221200,10.06722119140625,-0.5103759765625,-0.5944976806640625,-0.07171630859375
1790521819726224000,10.077223876953125,-0.5050811767578125,-0.6237640380859375,-0.069427490234375
1790521819736227000,10.08722705078125,-0.485107421875,-0.6814117431640625,-0.06024169921875
1790521819746230000,10.09722998046875,-0.51275634765625,-0.785552978515625,-0.040496826171875
1790521819756233000,10.10723291015625,-0.5939483642578125,-0.92425537109375,-0.009124755859375
1790521819766235100,10.117235107421875,-0.678070068359375,-1.0285491943359375,0.03302001953125
1790521819776238000,10.127238037109375,-0.7574920654296875,-1.070404052734375,0.080291748046875
1790521819786241000,10.137240966796876,-0.800567626953125,-1.0609283447265625,0.1173095703125
1790521819796244200,10.147244140625,-0.798492431640625,-1.00531005859375,0.1373748779296875
1790521819806247000,10.157246826171875,-0.750091552734375,-0.899505615234375,0.1272735595703125
1790521819816249000,10.1672490234375,-0.65142822265625,-0.732086181640625,0.119842529296875
1790521819826252000,10.177251953125,-0.59967041015625,-0.625091552734375,0.068603515625
1790521819836255000,10.1872548828125,-0.538726806640625,-0.6170501708984375,-0.0209197998046875
1790521819846258000,10.1972578125,-0.5103912353515625,-0.6287384033203125,-0.1031951904296875
1790521819856261000,10.20726123046875,-0.5181884765625,-0.64605712890625,-0.132476806640625
1790521819866264000,10.21726416015625,-0.557769775390625,-0.698272705078125,-0.1099090576171875
1790521819876266000,10.227265869140625,-0.604034423828125,-0.7695770263671875,-0.066314697265625
1790521819886269200,10.237269287109376,-0.6182403564453125,-0.8365631103515625,-0.00982666015625
1790521819896272000,10.24727197265625,-0.65045166015625,-0.8872222900390625,0.051605224609375
1790521819906275000,10.257275146484375,-0.691802978515625,-0.911834716796875,0.10919189453125
1790521819916278000,10.267278076171875,-0.6963348388671875,-0.9064788818359375,0.1435546875
1790521819926280000,10.277280029296875,-0.702239990234375,-0.8929901123046875,0.1472930908203125
1790521819936283100,10.287283203125,-0.7217864990234375,-0.896453857421875,0.141326904296875
1790521819946286000,10.2972861328125,-0.7298583984375,-0.899505615234375,0.115386962890625
1790521819956289000,10.3072890625,-0.724517822265625,-0.881988525390625,0.081268310546875
1790521819966292200,10.317292236328125,-0.7027740478515625,-0.842071533203125,0.05511474609375
1790521819976294100,10.327294189453125,-0.66986083984375,-0.7996063232421875,0.0387115478515625
1790521819986297000,10.337297119140626,-0.6422119140625,-0.7681884765625,0.0227203369140625
1790521819996300000,10.347300048828124,-0.6286773681640625,-0.75482177734375,0.0015716552734375
1790521820006303000,10.357302978515625,-0.6234283447265625,-0.749481201171875,-0.0228729248046875
1790521820016306000,10.367305908203125,-0.640289306640625,-0.75286865234375,-0.0403900146484375
1790521820026308000,10.37730810546875,-0.6676483154296875,-0.757781982421875,-0.03485107421875
1790521820036311000,10.38731103515625,-0.6737060546875,-0.7482757568359375,-0.01190185546875
1790521820046314000,10.39731396484375,-0.66656494140625,-0.73291015625,0.0124969482421875
1790521820056317200,10.407317138671875,-0.6556549072265625,-0.7229461669921875,0.026214599609375
1790521820066320000,10.41731982421875,-0.6493072509765625,-0.73040771484375,0.0268707275390625
1790521820076322000,10.427322021484375,-0.639556884765625,-0.7391510009765625,0.016571044921875
1790521820086325000,10.437324951171876,-0.6281280517578125,-0.7453765869140625,0.0085601806640625
1790521820096328000,10.447327880859374,-0.6222991943359375,-0.7513580322265625,0.0125885009765625
1790521820106331100,10.4573310546875,-0.6088104248046875,-0.744384765625,0.0241241455078125
1790521820116334000,10.467333984375,-0.5844573974609375,-0.720611572265625,0.0319976806640625
1790521820126336000,10.4773359375,-0.55224609375,-0.6985931396484375,0.028472900390625
1790521820136339000,10.4873388671875,-0.5146331787109375,-0.6990203857421875,0.023468017578125
1790521820146342100,10.497342041015624,-0.4817657470703125,-0.738128662109375,0.02410888671875
1790521820156345000,10.507344970703125,-0.4866943359375,-0.8141632080078125,0.031524658203125
1790521820166348000,10.51734814453125,-0.5378265380859375,-0.9026641845703125,0.039764404296875
1790521820176351000,10.52735107421875,-0.6164398193359375,-0.96868896484375,0.047576904296875
1790521820186353000,10.537352783203126,-0.6857147216796875,-0.9986114501953125,0.0648193359375
1790521820196356000,10.547356201171874,-0.7267303466796875,-0.98944091796875,0.0925750732421875
1790521820206359000,10.557359130859375,-0.7286529541015625,-0.9325408935546875,0.127777099609375
1790521820216362000,10.567362060546875,-0.68780517578125,-0.824371337890625,0.1405029296875
1790521820226365200,10.577365234375,-0.6310272216796875,-0.7135467529296875,0.106689453125
1790521820236367000,10.5873671875,-0.58453369140625,-0.6597442626953125,0.0412750244140625
1790521820246370000,10.5973701171875,-0.5634613037109375,-0.662933349609375,-0.027313232421875
1790521820256373000,10.607373046875,-0.56732177734375,-0.6852874755859375,-0.087066650390625
1790521820266376000,10.6173759765625,-0.6056671142578125,-0.7070159912109375,-0.1090850830078125
1790521820276379100,10.627379150390626,-0.6410980224609375,-0.7331085205078125,-0.1002655029296875
1790521820286381000,10.637381103515626,-0.642974853515625,-0.76416015625,-0.0737457275390625
1790521820296384000,10.647384033203124,-0.6611480712890625,-0.7979736328125,-0.0305633544921875
1790521820306387000,10.657386962890625,-0.6990814208984375,-0.826995849609375,0.01019287109375
1790521820316390100,10.66739013671875,-0.706390380859375,-0.839202880859375,0.035980224609375
1790521820326393000,10.67739306640625,-0.697357177734375,-0.8426666259765625,0.0545196533203125
1790521820336395000,10.68739501953125,-0.6755218505859375,-0.8474273681640625,0.053802490234375
1790521820346398200,10.697398193359374,-0.6612396240234375,-0.8616485595703125,0.0373077392578125
1790521820356401000,10.70740087890625,-0.6533660888671875,-0.8612518310546875,0.0264892578125
1790521820366404000,10.717404052734375,-0.64019775390625,-0.835479736328125,0.0162200927734375
1790521820376407000,10.727406982421876,-0.61846923828125,-0.80731201171875,0.0162811279296875
1790521820386410000,10.737409912109374,-0.613739013671875,-0.7903594970703125,0.022979736328125
1790521820396412200,10.747412109375,-0.6194000244140625,-0.7671661376953125,0.0223236083984375
1790521820406415000,10.7574150390625,-0.6106414794921875,-0.7432861328125,0.0062408447265625
1790521820416418000,10.76741796875,-0.6006927490234375,-0.7396087646484375,-0.013580322265625
1790521820426421800,10.777421875,-0.6048126220703125,-0.7601776123046875,-0.02374267578125
1790521820436424400,10.787424560546874,-0.621673583984375,-0.7834625244140625,-0.0228729248046875
1790521820446426600,10.797426513671875,-0.632598876953125,-0.7873382568359375,-0.0153045654296875
1790521820456429600,10.8074296875,-0.6409454345703125,-0.774383544921875,-0.0044097900390625
1790521820466432500,10.8174326171875,-0.6302337646484375,-0.7713470458984375,0.0164642333984375
1790521820476435700,10.827435791015626,-0.6053314208984375,-0.766143798828125,0.018890380859375
1790521820486438400,10.8374384765625,-0.5794525146484375,-0.7531585693359375,0.0018310546875
1790521820496440600,10.847440673828125,-0.5637054443359375,-0.7475738525390625,-0.0147552490234375
1790521820506443500,10.857443603515625,-0.567108154296875,-0.7530975341796875,-0.0325469970703125
1790521820516446500,10.867446533203125,-0.57843017578125,-0.76611328125,-0.037933349609375
1790521820526449700,10.87744970703125,-0.5953369140625,-0.7740631103515625,-0.0229339599609375
1790521820536452600,10.88745263671875,-0.60821533203125,-0.7765045166015625,0.0088958740234375
1790521820546455600,10.89745556640625,-0.6102752685546875,-0.775787353515625,0.03387451171875
1790521820556457500,10.90745751953125,-0.6021270751953125,-0.7757720947265625,0.04327392578125
1790521820566460700,10.917460693359375,-0.581298828125,-0.7774658203125,0.0384521484375
1790521820576463600,10.927463623046876,-0.572601318359375,-0.7838287353515625,0.0231781005859375
1790521820586466600,10.937466552734374,-0.5831146240234375,-0.79296875,0.0157012939453125
1790521820596469800,10.9474697265625,-0.5831756591796875,-0.7924346923828125,0.02490234375
1790521820606471400,10.957471435546875,-0.5775909423828125,-0.77197265625,0.0247802734375
1790521820616474600,10.967474609375,-0.5653228759765625,-0.7544403076171875,0.028839111328125
1790521820626477600,10.9774775390625,-0.5503997802734375,-0.7374420166015625,0.0325469970703125
1790521820636480500,10.98748046875,-0.5442657470703125,-0.7267303466796875,0.0477447509765625
1790521820646483700,10.997483642578125,-0.5516357421875,-0.7310638427734375,0.0764617919921875
1790521820656485600,11.007485595703125,-0.5556793212890625,-0.7414093017578125,0.10858154296875
1790521820666488600,11.017488525390625,-0.6088714599609375,-0.723358154296875,0.135284423828125
1790521820676491500,11.027491455078126,-0.7345123291015625,-0.7303924560546875,0.1796875
1790521820686494500,11.037494384765624,-0.577667236328125,-0.799560546875,0.015594482421875
1790521820696497700,11.04749755859375,-0.5644378662109375,-0.89630126953125,-0.0776824951171875
1790521820706499600,11.05749951171875,-0.7426300048828125,-0.8944854736328125,-0.088226318359375
1790521820716502800,11.067502685546875,-0.7418212890625,-0.834197998046875,-0.0843963623046875
1790521820726505500,11.07750537109375,-0.7342529296875,-0.81671142578125,-0.095062255859375
1790521820736508700,11.0875087890625,-0.750732421875,-0.8192138671875,-0.10675048828125
1790521820746511600,11.09751171875,-0.73516845703125,-0.7968902587890625,-0.0961761474609375
1790521820756514600,11.1075146484375,-0.7132110595703125,-0.7349853515625,-0.0562591552734375
1790521820766516700,11.117516845703125,-0.6014556884765625,-0.7376708984375,-0.0334930419921875
1790521820776519400,11.12751953125,-0.561676025390625,-0.7581787109375,-0.0015869140625
1790521820786522600,11.137522705078124,-0.5822296142578125,-0.7513427734375,0.012603759765625
1790521820796525600,11.147525634765625,-0.5971221923828125,-0.73101806640625,0.029541015625
1790521820806528500,11.157528564453125,-0.6002044677734375,-0.7404632568359375,0.050079345703125
1790521820816530400,11.167530517578125,-0.6134185791015625,-0.76080322265625,0.0730133056640625
1790521820826533600,11.17753369140625,-0.602935791015625,-0.8023681640625,0.0746917724609375
1790521820836536600,11.18753662109375,-0.6085357666015625,-0.8412933349609375,0.040740966796875
1790521820846539500,11.19753955078125,-0.5980987548828125,-0.8227081298828125,0.069183349609375
1790521820856542500,11.20754248046875,-0.5659942626953125,-0.8012542724609375,0.0993499755859375
1790521820866545700,11.217545654296876,-0.5953826904296875,-0.83050537109375,0.097076416015625
1790521820876547600,11.227547607421876,-0.5620574951171875,-0.817047119140625,0.1065673828125
1790521820886550800,11.23755078125,-0.53717041015625,-0.7762908935546875,0.0760498046875
1790521820896553500,11.247553466796875,-0.5797119140625,-0.7767791748046875,0.002349853515625
1790521820906556700,11.257556640625,-0.613067626953125,-0.80657958984375,-0.02886962890625
1790521820916559600,11.2675595703125,-0.6546173095703125,-0.81304931640625,-0.0332489013671875
1790521820926561500,11.2775615234375,-0.710052490234375,-0.7967681884765625,-0.0160369873046875
1790521820936564700,11.287564697265625,-0.727447509765625,-0.7928466796875,0.0087738037109375
1790521820946567400,11.2975673828125,-0.719940185546875,-0.8083953857421875,0.0170440673828125
1790521820956570600,11.307570556640625,-0.7181854248046875,-0.8117523193359375,0.0288543701171875
1790521820966573600,11.317573486328126,-0.721527099609375,-0.813018798828125,0.052520751953125
1790521820976575500,11.327575439453126,-0.7097320556640625,-0.82135009765625,0.0751953125
1790521820986578700,11.33757861328125,-0.681854248046875,-0.824005126953125,0.0831298828125
1790521820996581600,11.34758154296875,-0.6611175537109375,-0.8156280517578125,0.0731353759765625
1790521821006584600,11.35758447265625,-0.6416015625,-0.798492431640625,0.05615234375
1790521821016587500,11.36758740234375,-0.6197967529296875,-0.7724456787109375,0.048614501953125
1790521821026590500,11.377590576171874,-0.59820556640625,-0.7444915771484375,0.05316162109375
1790521821036592400,11.38759228515625,-0.5765228271484375,-0.727691650390625,0.0555419921875
1790521821046595600,11.397595703125,-0.56298828125,-0.7302093505859375,0.054718017578125
1790521821056598800,11.407598876953125,-0.5728607177734375,-0.74456787109375,0.0440826416015625
1790521821066601500,11.4176015625,-0.6053619384765625,-0.7554168701171875,0.0258331298828125
1790521821076604700,11.427604736328124,-0.6240692138671875,-0.7517242431640625,0.011749267578125
1790521821086606600,11.437606689453125,-0.6507110595703125,-0.74481201171875,-0.0067596435546875
1790521821096609500,11.447609619140625,-0.6885986328125,-0.7481536865234375,-0.0351104736328125
1790521821106612700,11.45761279296875,-0.66912841796875,-0.7537994384765625,-0.0490570068359375
1790521821116615400,11.467615478515626,-0.6590118408203125,-0.7509765625,-0.047119140625
1790521821126618600,11.47761865234375,-0.6718597412109375,-0.74652099609375,-0.0362548828125
1790521821136620500,11.48762060546875,-0.674957275390625,-0.7447052001953125,-0.041015625
1790521821146623500,11.49762353515625,-0.6799774169921875,-0.7425689697265625,-0.0593109130859375
1790521821156626700,11.507626708984375,-0.694915771484375,-0.740234375,-0.083160400390625
1790521821166629600,11.517629638671876,-0.7037353515625,-0.748626708984375,-0.0893707275390625
1790521821176632600,11.527632568359374,-0.7150421142578125,-0.762542724609375,-0.052001953125
1790521821186635500,11.537635498046875,-0.6999969482421875,-0.7550201416015625,-0.0283203125
1790521821196637700,11.5476376953125,-0.705078125,-0.7325286865234375,-0.0167236328125
1790521821206640400,11.557640380859375,-0.7161407470703125,-0.72021484375,-0.0129852294921875
1790521821216643600,11.5676435546875,-0.6879119873046875,-0.7154388427734375,-0.0181884765625
1790521821226646800,11.577646728515624,-0.6611480712890625,-0.720855712890625,-0.0142364501953125
1790521821236649500,11.5876494140625,-0.69781494140625,-0.7125091552734375,-0.013763427734375
1790521821246651600,11.597651611328125,-0.7369842529296875,-0.6887664794921875,-0.01678466796875
1790521821256654600,11.607654541015625,-0.7610626220703125,-0.667144775390625,-0.0015106201171875
1790521821266657500,11.617657470703126,-0.7718963623046875,-0.6537933349609375,0.0088958740234375
1790521821276660700,11.62766064453125,-0.7667694091796875,-0.6534881591796875,0.0264434814453125
1790521821286663400,11.637663330078125,-0.7614593505859375,-0.6522369384765625,0.03729248046875
1790521821296666600,11.64766650390625,-0.7673187255859375,-0.6441802978515625,0.0307159423828125
1790521821306668500,11.65766845703125,-0.7550811767578125,-0.6447906494140625,0.0358123779296875
1790521821316671500,11.66767138671875,-0.733245849609375,-0.64776611328125,0.043487548828125
1790521821326674700,11.6776748046875,-0.7291412353515625,-0.651092529296875,0.0371246337890625
1790521821336677600,11.687677734375,-0.732666015625,-0.6541595458984375,0.0204315185546875
1790521821346680600,11.6976806640625,-0.7218017578125,-0.6709747314453125,0.0020294189453125
1790521821356682500,11.7076826171875,-0.6881256103515625,-0.69244384765625,-0.017303466796875
1790521821366685700,11.717685791015626,-0.66864013671875,-0.7087554931640625,-0.0282135009765625
1790521821376688400,11.7276884765625,-0.6585845947265625,-0.72161865234375,-0.029693603515625
1790521821386691600,11.737691650390625,-0.6590423583984375,-0.720611572265625,-0.045318603515625
1790521821396694800,11.74769482421875,-0.6092376708984375,-0.7003936767578125,-0.0616912841796875
1790521821406697500,11.757697509765626,-0.6283721923828125,-0.654632568359375,-0.1074676513671875
1790521821416699600,11.76769970703125,-0.867218017578125,-0.739776611328125,-0.097503662109375
1790521821426702600,11.77770263671875,-0.742828369140625,-0.7573089599609375,-0.055450439453125
1790521821436705300,11.787705322265625,-0.703460693359375,-0.72955322265625,-0.035858154296875
1790521821446708500,11.79770849609375,-0.67877197265625,-0.7069091796875,-0.007293701171875
1790521821456711400,11.80771142578125,-0.6869049072265625,-0.6970062255859375,-0.0228729248046875
1790521821466713300,11.81771337890625,-0.7681884765625,-0.6820526123046875,-0.0443572998046875
1790521821476716500,11.827716552734374,-0.7507171630859375,-0.670135498046875,-0.02508544921875
1790521821486719500,11.837719482421875,-0.743499755859375,-0.651458740234375,-0.01092529296875
1790521821496722400,11.847722412109375,-0.7660980224609375,-0.640716552734375,0.00103759765625
1790521821506725400,11.857725341796876,-0.7634429931640625,-0.6298828125,0.01837158203125
1790521821516728300,11.867728271484374,-0.742828369140625,-0.605072021484375,0.0304412841796875
1790521821526730200,11.877730224609374,-0.71392822265625,-0.5986328125,0.0490875244140625
1790521821536733400,11.8877333984375,-0.7036285400390625,-0.6154022216796875,0.07623291015625
1790521821546736400,11.897736328125,-0.70458984375,-0.6453857421875,0.104278564453125
1790521821556739300,11.9077392578125,-0.712615966796875,-0.6596832275390625,0.095977783203125
1790521821566742500,11.917742431640624,-0.70947265625,-0.6789093017578125,0.0713348388671875
1790521821576744200,11.927744140625,-0.70098876953125,-0.7137908935546875,0.05035400390625
1790521821586747400,11.937747314453125,-0.691497802734375,-0.753387451171875,0.0318145751953125
1790521821596750600,11.94775048828125,-0.686248779296875,-0.7977294921875,0.0187225341796875
1790521821606753300,11.957753173828126,-0.6729888916015625,-0.8074951171875,0.0021820068359375
1790521821616756500,11.967756591796874,-0.668426513671875,-0.7949066162109375,-0.009735107421875
1790521821626759400,11.977759521484375,-0.6629180908203125,-0.7886810302734375,-0.006591796875
1790521821636761300,11.98776123046875,-0.6585845947265625,-0.78179931640625,-0.0002899169921875
1790521821646764500,11.9977646484375,-0.68060302734375,-0.772552490234375,0.0114593505859375
1790521821656767500,12.007767578125,-0.7049713134765625,-0.7386474609375,0.0166168212890625
1790521821666770400,12.0177705078125,-0.720306396484375,-0.7376251220703125,0.01812744140625
1790521821676773400,12.0277734375,-0.7188873291015625,-0.68817138671875,0.03497314453125
1790521821686775600,12.037775634765625,-0.7156219482421875,-0.69000244140625,0.0534820556640625
1790521821696778500,12.047778564453125,-0.727294921875,-0.6714019775390625,0.0709075927734375
1790521821706781400,12.057781494140626,-0.7369384765625,-0.659759521484375,0.079803466796875
1790521821716784400,12.067784423828124,-0.7314910888671875,-0.65338134765625,0.0809783935546875
1790521821726787300,12.077787353515625,-0.736663818359375,-0.652313232421875,0.0743255615234375
1790521821736790500,12.08779052734375,-0.7517547607421875,-0.6682586669921875,0.0622406005859375
1790521821746792200,12.097792236328125,-0.7482757568359375,-0.69317626953125,0.0660247802734375
1790521821756795400,12.10779541015625,-0.739898681640625,-0.708221435546875,0.0686798095703125
1790521821766798600,12.117798583984374,-0.7238006591796875,-0.7197113037109375,0.066131591796875
1790521821776801300,12.12780126953125,-0.7292938232421875,-0.7353057861328125,0.06597900390625
1790521821786804500,12.137804443359375,-0.7263946533203125,-0.7430572509765625,0.0592498779296875
1790521821796806400,12.147806396484375,-0.6960296630859375,-0.7518310546875,0.0481414794921875
1790521821806809300,12.157809326171876,-0.67071533203125,-0.7633056640625,0.0373687744140625
1790521821816812500,12.1678125,-0.6743011474609375,-0.754669189453125,0.0236663818359375
1790521821826815500,12.1778154296875,-0.6610870361328125,-0.738006591796875,0.0113983154296875
1790521821836818400,12.187818359375,-0.63751220703125,-0.731170654296875,0.01214599609375
1790521821846821400,12.1978212890625,-0.6387939453125,-0.7272491455078125,0.013885498046875
1790521821856823600,12.207823486328126,-0.6439056396484375,-0.72442626953125,0.0059967041015625
1790521821866826500,12.217826416015624,-0.635589599609375,-0.72027587890625,0.01104736328125
1790521821876829400,12.227829345703125,-0.6254425048828125,-0.7174835205078125,0.0280914306640625
1790521821886832400,12.237832275390625,-0.6433563232421875,-0.7150726318359375,0.0426177978515625
1790521821896835300,12.24783544921875,-0.66485595703125,-0.708770751953125,0.055633544921875
1790521821906838500,12.257838623046876,-0.684356689453125,-0.7033233642578125,0.0705108642578125
1790521821916840200,12.267840087890624,-0.708831787109375,-0.7034912109375,0.0815582275390625
1790521821926843400,12.277843505859375,-0.7237548828125,-0.714996337890625,0.08343505859375
1790521821936846600,12.2878466796875,-0.7499847412109375,-0.7278594970703125,0.0783233642578125
1790521821946849300,12.297849365234375,-0.7779693603515625,-0.7412261962890625,0.06829833984375
1790521821956852500,12.3078525390625,-0.776458740234375,-0.7624053955078125,0.065185546875
1790521821966854400,12.3178544921875,-0.7717437744140625,-0.7771148681640625,0.06640625
1790521821976857300,12.327857421875,-0.7446441650390625,-0.770294189453125,0.0709075927734375
1790521821986860500,12.337860595703125,-0.7100677490234375,-0.7481842041015625,0.069549560546875
1790521821996863500,12.347863525390625,-0.6634979248046875,-0.73516845703125,0.0606536865234375
1790521822006866400,12.357866455078126,-0.6360321044921875,-0.72650146484375,0.0433349609375
1790521822016869400,12.367869384765624,-0.632080078125,-0.7208099365234375,0.0345458984375
1790521822026871600,12.37787158203125,-0.6184539794921875,-0.72174072265625,0.0286712646484375
1790521822036874500,12.38787451171875,-0.5904388427734375,-0.730926513671875,0.0243072509765625
1790521822046877400,12.39787744140625,-0.6085205078125,-0.753448486328125,0.0309906005859375
1790521822056880400,12.40788037109375,-0.6269683837890625,-0.777740478515625,0.021881103515625
1790521822066883300,12.41788330078125,-0.63494873046875,-0.787384033203125,0.01806640625
1790521822076886500,12.427886474609375,-0.653961181640625,-0.7711334228515625,0.0333099365234375
1790521822086888200,12.43788818359375,-0.6677703857421875,-0.736297607421875,0.037384033203125
1790521822096891400,12.447891357421875,-0.6884307861328125,-0.71124267578125,0.0345001220703125
1790521822106894600,12.45789453125,-0.6844329833984375,-0.6935272216796875,0.0455322265625
1790521822116897300,12.467897216796874,-0.6557769775390625,-0.694732666015625,0.064910888671875
1790521822126900500,12.477900390625,-0.6793365478515625,-0.6984100341796875,0.0883331298828125
1790521822136902400,12.48790234375,-0.68878173828125,-0.712646484375,0.1070404052734375
1790521822146905300,12.4979052734375,-0.6790008544921875,-0.7457427978515625,0.1052093505859375
1790521822156908500,12.507908447265624,-0.680908203125,-0.77130126953125,0.0837249755859375
1790521822166911500,12.517911376953125,-0.7003326416015625,-0.7706756591796875,0.0592803955078125
1790521822176914400,12.52791455078125,-0.7191162109375,-0.76788330078125,0.0442352294921875
1790521822186917400,12.53791748046875,-0.7059326171875,-0.751953125,0.025543212890625
1790521822196919600,12.54791943359375,-0.691375732421875,-0.72625732421875,0.0181884765625
1790521822206922500,12.557922607421874,-0.6678314208984375,-0.71527099609375,0.0471649169921875
1790521822216925400,12.567925537109375,-0.676177978515625,-0.7344970703125,0.083587646484375
1790521822226928400,12.577928466796875,-0.6675567626953125,-0.7838287353515625,0.114593505859375
1790521822236931300,12.587931396484375,-0.643951416015625,-0.80535888671875,0.142974853515625
1790521822246934500,12.5979345703125,-0.6238555908203125,-0.8047027587890625,0.1657562255859375
1790521822256936200,12.607936279296876,-0.6154937744140625,-0.8065643310546875,0.1676788330078125
1790521822266939400,12.617939453125,-0.6056060791015625,-0.7973480224609375,0.1594085693359375
1790521822276942600,12.627942626953125,-0.5740814208984375,-0.7700042724609375,0.15625
1790521822286945300,12.6379453125,-0.549285888671875,-0.74041748046875,0.169464111328125
1790521822296948500,12.647948486328126,-0.5166015625,-0.747894287109375,0.1826019287109375
1790521822306951400,12.657951416015624,-0.4989776611328125,-0.76348876953125,0.198699951171875
1790521822316953300,12.667953369140625,-0.485260009765625,-0.77142333984375,0.217437744140625
1790521822326956500,12.67795654296875,-0.408172607421875,-0.778350830078125,0.27996826171875
1790521822336959500,12.68795947265625,-0.368927001953125,-0.8898162841796875,0.2339630126953125
1790521822346962400,12.69796240234375,-0.46575927734375,-0.746337890625,0.25701904296875
1790521822356965400,12.70796533203125,-0.5801544189453125,-0.678070068359375,0.256103515625
1790521822366968300,12.71796826171875,-0.6282806396484375,-0.750457763671875,0.217529296875
1790521822376970500,12.727970458984375,-0.5946502685546875,-0.76629638671875,0.18365478515625
1790521822386973400,12.737973388671875,-0.5428619384765625,-0.778350830078125,0.163909912109375
1790521822396976400,12.747976318359376,-0.582855224609375,-0.79998779296875,0.1536712646484375
1790521822406979300,12.757979248046874,-0.659271240234375,-0.8376312255859375,0.139678955078125
1790521822416982500,12.767982421875,-0.6735687255859375,-0.8431396484375,0.1270294189453125
1790521822426985200,12.777985107421875,-0.6525115966796875,-0.8292083740234375,0.115631103515625
1790521822436987100,12.787987060546875,-0.66802978515625,-0.7819976806640625,0.124755859375
1790521822446990300,12.797990234375,-0.673858642578125,-0.705230712890625,0.1109161376953125
1790521822456993000,12.807992919921874,-0.6601715087890625,-0.63775634765625,0.1004638671875
1790521822466996200,12.817996337890625,-0.6019287109375,-0.5970916748046875,0.102783203125
1790521822476999200,12.827999267578125,-0.544952392578125,-0.5770721435546875,0.0871429443359375
1790521822487002000,12.838002197265626,-0.5277862548828125,-0.5930328369140625,0.0701751708984375
1790521822497004300,12.84800439453125,-0.5358734130859375,-0.6505584716796875,0.050140380859375
