time,seconds_elapsed,z,y,x
1790521809697197600,0.048197509765625,0.012734416872262955,0.23039963841438293,0.4022221267223358
1790521809707200800,0.05820068359375,0.044569045305252075,0.11892238259315491,0.41193947196006775
1790521809717202700,0.06820263671875,0.10622954368591309,0.044152259826660156,0.42185306549072266
1790521809727205600,0.07820556640625,0.14541076123714447,0.03829037770628929,0.4094832241535187
1790521809737208600,0.08820849609375,0.14250929653644562,0.06388838589191437,0.38028576970100403
1790521809747211800,0.098211669921875,0.11574133485555649,0.08168575167655945,0.3423122763633728
1790521809757213700,0.108213623046875,0.0976438894867897,0.11378920078277588,0.29087862372398376
1790521809767216600,0.118216552734375,0.07435694336891174,0.15042205154895782,0.2284325808286667
1790521809777219800,0.1282197265625,0.0529814213514328,0.21470092236995697,0.17345783114433289
1790521809787222500,0.138222412109375,0.06746262311935425,0.33010900020599365,0.13231626152992249
1790521809797224700,0.148224609375,0.07410777360200882,0.4540964961051941,0.11095556616783142
1790521809807227600,0.1582275390625,0.04679279401898384,0.44266942143440247,0.13074392080307007
1790521809817230600,0.168230712890625,0.028383418917655945,0.39686691761016846,0.167568638920784
1790521809827233500,0.178233642578125,0.03972768411040306,0.36829066276550293,0.19696646928787231
1790521809837235700,0.188235595703125,0.07820168882608414,0.3567463457584381,0.2390652447938919
1790521809847238700,0.19823876953125,0.12311456352472305,0.3095945417881012,0.28491824865341187
1790521809857241600,0.20824169921875,0.16936175525188446,0.21907249093055725,0.3429522216320038
1790521809867243800,0.218243896484375,0.17022141814231873,0.10968820005655289,0.3649560511112213
1790521809877246700,0.228246826171875,0.16499139368534088,0.1695578545331955,0.36708489060401917
1790521809887249700,0.238249755859375,0.1785748451948166,0.21538951992988586,0.3863842785358429
1790521809897252600,0.248252685546875,0.22803907096385956,0.15847140550613403,0.4450908899307251
1790521809907254800,0.2582548828125,0.29368627071380615,0.0470665842294693,0.5422618985176086
1790521809917257700,0.2682578125,0.3231312334537506,-0.025106146931648254,0.630236804485321
1790521809927260700,0.2782607421875,0.31848323345184326,-0.11037150770425797,0.6546379923820496
1790521809937263600,0.288263671875,0.32029953598976135,-0.22492443025112152,0.6164143085479736
1790521809947265500,0.298265625,0.3228899836540222,-0.227203831076622,0.5543674230575562
1790521809957268700,0.308268798828125,0.30494070053100586,-0.148810014128685,0.5119458436965942
1790521809967271700,0.318271728515625,0.2809450924396515,-0.07163800299167633,0.4893915355205536
1790521809977274600,0.328274658203125,0.2550899088382721,-0.015503136441111565,0.5003582835197449
1790521809987276500,0.338276611328125,0.23094859719276428,0.029065662994980812,0.5376095175743103
1790521809997279700,0.34827978515625,0.186412513256073,0.011868066154420376,0.5213803052902222
1790521810007282700,0.35828271484375,0.1699770838022232,-0.061288438737392426,0.4383717477321625
1790521810017284600,0.36828466796875,0.10390538722276688,-0.08562280237674713,0.3561921715736389
1790521810027287800,0.378287841796875,0.012023668736219406,-0.028913984075188637,0.3103668987751007
1790521810037290500,0.38829052734375,-0.0015131995314732194,-0.0011999823618680239,0.2781936824321747
1790521810047293700,0.398293701171875,0.019492216408252716,-0.05416732653975487,0.2560007572174072
1790521810057295600,0.408295654296875,0.03807557374238968,-0.17852450907230377,0.2112618386745453
1790521810067298600,0.418298583984375,0.03355299308896065,-0.3119308054447174,0.11571375280618668
1790521810077301800,0.4283017578125,0.004874726757407188,-0.3968867361545563,-0.028839299455285072
1790521810087304700,0.4383046875,-0.006193104200065136,-0.4438081681728363,-0.24456706643104553
1790521810097306600,0.448306640625,-0.030500125139951706,-0.38824042677879333,-0.46454182267189026
1790521810107309600,0.4583095703125,-0.04154824838042259,-0.2983326315879822,-0.6757702231407166
1790521810117312800,0.468312744140625,-0.03948446735739708,-0.31379392743110657,-0.8425102233886719
1790521810127315700,0.478315673828125,-0.05946909263730049,-0.3490046560764313,-0.9130792021751404
1790521810137317600,0.488317626953125,-0.06057775393128395,-0.40048831701278687,-0.9049080014228821
1790521810147320800,0.49832080078125,-0.07545044273138046,-0.2714320719242096,-0.8496924042701721
1790521810157323500,0.508323486328125,-0.06181563809514046,-0.1336563229560852,-0.791099488735199
1790521810167326700,0.51832666015625,-0.02169458568096161,-0.032445285469293594,-0.7903321981430054
1790521810177328600,0.52832861328125,-0.034875426441431046,-0.07550737261772156,-0.8490056395530701
1790521810187331600,0.53833154296875,0.01479732058942318,-0.12733007967472076,-0.8121589422225952
1790521810197334800,0.548334716796875,0.1141575425863266,-0.0784837007522583,-0.6260560750961304
1790521810207336700,0.558336669921875,0.1740991622209549,0.17502233386039734,-0.30277445912361145
1790521810217339600,0.568339599609375,0.19911585748195648,0.45802754163742065,0.07799144089221954
1790521810227342600,0.578342529296875,0.24274802207946777,0.7501859068870544,0.4418407380580902
1790521810237345800,0.588345703125,0.2867233157157898,0.9537250399589539,0.715126097202301
1790521810247347700,0.59834765625,0.41748344898223877,0.6436254978179932,0.9323947429656982
1790521810257350700,0.6083505859375,0.5511789321899414,-0.04717636480927467,1.2328490018844604
1790521810267353900,0.618353759765625,0.27051079273223877,0.25230008363723755,1.313987374305725
1790521810277356500,0.6283564453125,0.09200537204742432,0.23596452176570892,0.856228768825531
1790521810287358700,0.638358642578125,-0.06016499549150467,-0.12195101380348206,0.34546318650245667
1790521810297361700,0.648361572265625,-0.14308011531829834,-0.09519820660352707,0.03306787461042404
1790521810307364600,0.658364501953125,-0.11540719121694565,-0.11609470099210739,-0.228805810213089
1790521810317367600,0.668367431640625,-0.15358583629131317,-0.233086496591568,-0.45391395688056946
1790521810327369700,0.67836962890625,-0.31372731924057007,-0.36327648162841797,-0.7388485074043274
1790521810337372700,0.68837255859375,-0.5018479228019714,-0.6933025121688843,-1.1539480686187744
1790521810347375600,0.698375732421875,-0.692844808101654,-1.1150559186935425,-1.5290045738220215
1790521810357378800,0.70837890625,-0.9226946234703064,-1.601648211479187,-1.7693371772766113
1790521810367380700,0.718380615234375,-0.8554580807685852,-1.3311676979064941,-1.8824282884597778
1790521810377383700,0.7283837890625,-0.7642354965209961,-1.0317504405975342,-1.7041454315185547
1790521810387386600,0.73838671875,-0.6517795324325562,-0.5871407389640808,-1.343021035194397
1790521810397388800,0.748388916015625,-0.49174079298973083,-0.05159582197666168,-0.9328497648239136
1790521810407391700,0.758391845703125,-0.32468125224113464,0.30418092012405396,-0.533012866973877
1790521810417394200,0.768394287109375,-0.15387937426567078,0.5670428276062012,-0.14065484702587128
1790521810427397400,0.7783974609375,0.019177891314029694,0.80015629529953,0.23624955117702484
1790521810437399000,0.78839892578125,0.17681743204593658,1.0062333345413208,0.5525680780410767
1790521810447402200,0.79840234375,0.2892973721027374,1.148097276687622,0.7522902488708496
1790521810457405200,0.8084052734375,0.37062451243400574,1.234528660774231,0.8571019768714905
1790521810467408100,0.818408203125,0.418906033039093,1.2879501581192017,0.9140297174453735
1790521810477410300,0.828410400390625,0.4411918520927429,1.2732359170913696,0.9767863154411316
1790521810487413200,0.838413330078125,0.4444824457168579,1.2276859283447266,1.0436511039733887
1790521810497416200,0.848416259765625,0.4208991229534149,1.1970438957214355,1.1005537509918213
1790521810507419100,0.858419189453125,0.34752288460731506,1.117959976196289,1.128211498260498
1790521810517421300,0.86842138671875,0.2409057319164276,0.9496088027954102,1.1290152072906494
1790521810527424000,0.878424072265625,0.10216382145881653,0.6627978086471558,1.0909546613693237
1790521810537427200,0.88842724609375,-0.018222946673631668,0.262731671333313,0.9818102717399597
1790521810547430400,0.898430419921875,-0.12601572275161743,-0.10433076322078705,0.823382556438446
1790521810557432000,0.90843212890625,-0.2221347987651825,-0.4046599566936493,0.6262848973274231
1790521810567435300,0.918435302734375,-0.30648908019065857,-0.6175259351730347,0.4246905446052551
1790521810577438200,0.928438232421875,-0.3727525472640991,-0.6949946284294128,0.26193490624427795
1790521810587440000,0.938440185546875,-0.41275641322135925,-0.6569976806640625,0.1509210467338562
1790521810597443000,0.948443115234375,-0.409537672996521,-0.5459118485450745,0.0752626359462738
1790521810607446300,0.9584462890625,-0.38388052582740784,-0.4149019122123718,0.024040458723902702
1790521810617449200,0.96844921875,-0.3448702096939087,-0.36561328172683716,-0.014732169918715954
1790521810627451100,0.978451171875,-0.2832566499710083,-0.37373459339141846,-0.041547805070877075
1790521810637454300,0.988454345703125,-0.19812911748886108,-0.41943463683128357,-0.07936006039381027
1790521810647457000,0.99845703125,-0.10270965844392776,-0.40713271498680115,-0.136173278093338
1790521810657460200,1.008460205078125,-0.03302660956978798,-0.35061779618263245,-0.19401946663856506
1790521810667462100,1.018462158203125,-0.009792394936084747,-0.2747240960597992,-0.2355669140815735
1790521810677465000,1.028465087890625,-0.020190272480249405,-0.19205179810523987,-0.26926010847091675
1790521810687468300,1.03846826171875,-0.040651604533195496,-0.10377652198076248,-0.3039270043373108
1790521810697471200,1.04847119140625,-0.042483918368816376,-0.033247604966163635,-0.35292062163352966
1790521810707473200,1.05847314453125,-0.005965054500848055,0.01758415251970291,-0.3934193253517151
1790521810717476000,1.06847607421875,0.048713505268096924,0.0009959775488823652,-0.3873826265335083
1790521810727479300,1.078479248046875,0.07053065299987793,-0.026258280500769615,-0.31729596853256226
1790521810737482200,1.088482177734375,0.06057947129011154,-0.015185149386525154,-0.18589173257350922
1790521810747484200,1.098484130859375,0.06943900883197784,-0.04256989806890488,-0.03999977558851242
1790521810757487400,1.1084873046875,0.08373665809631348,-0.016149206086993217,0.0733843445777893
1790521810767490000,1.118489990234375,0.06908927857875824,0.04877866059541702,0.13366712629795074
1790521810777493200,1.1284931640625,0.0694279819726944,0.073343425989151,0.13386543095111847
1790521810787495200,1.1384951171875,0.14057698845863342,0.02844998612999916,0.0777057483792305
1790521810797498000,1.148498046875,0.18662410974502563,-0.009074220433831215,0.01999931037425995
1790521810807501300,1.158501220703125,0.18687152862548828,0.02790536917746067,-0.004160620272159576
1790521810817504300,1.168504150390625,0.1548720896244049,0.10968196392059326,0.015346335247159004
1790521810827506200,1.178506103515625,0.13222935795783997,0.18977706134319305,0.033756766468286514
1790521810837509000,1.188509033203125,0.11565710604190826,0.19271117448806763,0.012826181016862392
1790521810847512300,1.19851220703125,0.09229878336191177,0.15267853438854218,-0.03632991388440132
1790521810857515000,1.208514892578125,0.0566151887178421,0.0661996603012085,-0.1016986221075058
1790521810867517200,1.21851708984375,0.02338506281375885,-0.0030198937747627497,-0.17234750092029572
1790521810877520400,1.228520263671875,0.00023222726304084063,-0.000072800787165761,-0.22545045614242554
1790521810887523000,1.238523193359375,-0.024761008098721504,0.06850679218769073,-0.23431798815727234
1790521810897525200,1.248525146484375,-0.06686119735240936,0.13355475664138794,-0.18159279227256775
1790521810907528200,1.258528076171875,-0.09406698495149612,0.18262776732444763,-0.0798664316534996
1790521810917531100,1.26853125,-0.07552213221788406,0.15776249766349792,0.016119351610541344
1790521810927534000,1.2785341796875,-0.040885329246520996,0.08929022401571274,0.10028029978275299
1790521810937536300,1.288536376953125,0.002278817817568779,0.01814218796789646,0.1604694426059723
1790521810947539200,1.298539306640625,0.03467750549316406,-0.014745453372597694,0.2030712366104126
1790521810957542100,1.308542236328125,0.04435226321220398,-0.03420616686344147,0.21760016679763794
1790521810967545300,1.31854541015625,0.032695870846509933,-0.02689152956008911,0.20758987963199615
1790521810977547300,1.32854736328125,0.005096055567264557,-0.00003105425275862217,0.1813153624534607
1790521810987550200,1.33855029296875,-0.030485905706882477,0.007935525849461555,0.13710981607437134
1790521810997553200,1.34855322265625,-0.06924812495708466,-0.020297396928071976,0.08369690179824829
1790521811007556000,1.35855615234375,-0.08377940207719803,-0.06963005661964417,0.031897615641355515
1790521811017558000,1.36855810546875,-0.07486480474472046,-0.10508354753255844,0.0077153779566287994
1790521811027561200,1.378561279296875,-0.05988878011703491,-0.09554436802864075,0.012509600259363651
1790521811037564200,1.388564208984375,-0.05162394791841507,-0.050734180957078934,0.04288877919316292
1790521811047567000,1.398567138671875,-0.03325426205992699,-0.009165164083242416,0.08831112831830978
1790521811057569300,1.4085693359375,-0.0011619231663644314,-0.007481423206627369,0.11703457683324814
1790521811067572200,1.418572265625,0.027970662340521812,-0.000856809550896287,0.11724230647087097
1790521811077575200,1.4285751953125,0.030773814767599106,0.0333370678126812,0.10180985927581787
1790521811087578400,1.438578369140625,0.026007022708654404,0.041558511555194855,0.08319702744483948
1790521811097580300,1.448580322265625,0.021739739924669266,0.04090077802538872,0.06232589855790138
1790521811107583200,1.458583251953125,0.017588138580322266,0.026121830567717552,0.05296941101551056
1790521811117586200,1.468586181640625,0.020286664366722107,0.010521462187170982,0.05262186750769615
1790521811127589000,1.478589111328125,0.012996260076761246,-0.010728432796895504,0.055894896388053894
1790521811137591000,1.488591064453125,-0.0007141342503018677,-0.028060773387551308,0.040116164833307266
1790521811147594200,1.49859423828125,-0.010293258354067802,-0.037611935287714005,0.0034580198116600513
1790521811157597200,1.50859716796875,-0.013492857106029987,-0.01530211977660656,-0.03627537935972214
1790521811167600000,1.51860009765625,-0.016441242769360542,0.0017002997919917107,-0.0636095255613327
1790521811177602300,1.528602294921875,-0.018462728708982468,-0.013532618060708046,-0.07464516907930374
1790521811187605200,1.538605224609375,-0.01830054260790348,-0.02637837640941143,-0.061866529285907745
1790521811197608200,1.548608154296875,-0.013511722907423973,-0.02449021302163601,-0.02308088168501854
1790521811207611400,1.558611328125,-0.010216061025857925,-0.03982256352901459,0.015211381018161774
1790521811217613300,1.56861328125,-0.009481982327997684,-0.05505375564098358,0.03233051300048828
1790521811227616300,1.5786162109375,0.007120164111256599,-0.057662855833768845,0.03094966523349285
1790521811237619200,1.588619140625,0.043965600430965424,-0.02571915276348591,0.022544661536812782
1790521811247621400,1.598621337890625,0.07035486400127411,0.01728690415620804,0.023897012695670128
1790521811257624000,1.6086240234375,0.0826253741979599,0.03837967291474342,0.04549018666148186
1790521811267627300,1.618627197265625,0.08695168048143387,0.03631332516670227,0.0758315846323967
1790521811277630200,1.628630126953125,0.0900171771645546,-0.0006960846949368715,0.08593352138996124
1790521811287632100,1.638632080078125,0.09288886934518814,-0.043308258056640625,0.054179318249225616
1790521811297635300,1.64863525390625,0.0939517542719841,-0.04560467600822449,-0.013351120986044407
1790521811307638300,1.65863818359375,0.06931458413600922,0.020726677030324936,-0.08542478084564209
1790521811317641200,1.66864111328125,0.014279447495937347,0.07894793897867203,-0.13403473794460297
1790521811327643100,1.67864306640625,-0.04176624119281769,0.08278955519199371,-0.14937400817871094
1790521811337646300,1.688646240234375,-0.0749376192688942,0.021045157685875893,-0.11971075087785721
1790521811347649000,1.69864892578125,-0.06759262084960938,-0.04821434244513512,-0.06759455054998398
1790521811357652200,1.70865234375,-0.04661581292748451,-0.0691123902797699,-0.0031336043030023575
1790521811367654400,1.718654296875,-0.03897067531943321,-0.04767501354217529,0.05889967083930969
1790521811377657000,1.728656982421875,-0.0351259782910347,-0.02216508612036705,0.1016678437590599
1790521811387660300,1.738660400390625,-0.03032483533024788,-0.005989311262965202,0.10927356779575348
1790521811397663200,1.748663330078125,-0.03204681724309921,0.03562713414430618,0.09443829208612442
1790521811407665200,1.7586650390625,-0.026648059487342834,0.07264719903469086,0.07186534255743027
1790521811417668400,1.76866845703125,-0.01485370472073555,0.10309062153100967,0.04922913387417793
1790521811427671600,1.778671630859375,0.0027505895122885704,0.11712255328893661,0.038597796112298965
1790521811437674500,1.788674560546875,0.017155682668089867,0.09930772334337234,0.04047166183590889
1790521811447676400,1.798676513671875,0.02217227965593338,0.0683964192867279,0.049639858305454254
1790521811457679600,1.8086796875,0.016247320920228958,0.04204477742314339,0.04599040001630783
1790521811467682300,1.818682373046875,0.010013393126428127,0.021646298468112946,0.007708524353802204
1790521811477685500,1.828685546875,0.0049689398147165775,-0.0007542776875197887,-0.048391662538051605
1790521811487687400,1.8386875,0.006191330961883068,-0.03272951766848564,-0.09201450645923615
1790521811497690400,1.8486904296875,0.01228923350572586,-0.03703639283776283,-0.1094377338886261
1790521811507693600,1.858693603515625,0.013014145195484161,-0.021759700030088425,-0.09281641989946365
1790521811517696300,1.8686962890625,0.009576858952641487,-0.011354607529938221,-0.05792601406574249
1790521811527698400,1.878698486328125,-0.00614298228174448,-0.006979300640523434,-0.018099505454301834
1790521811537701400,1.888701416015625,-0.013634867034852505,-0.014232855290174484,0.004172478802502155
1790521811547704600,1.89870458984375,-0.021290920674800873,-0.017960481345653534,0.004747988656163216
1790521811557707300,1.908707275390625,-0.04256271570920944,-0.010028248652815819,-0.0005537993274629116
1790521811567709400,1.91870947265625,-0.06093187257647514,-0.005995956249535084,-0.0069677564315497875
1790521811577712600,1.928712646484375,-0.07324391603469849,-0.00554825272411108,-0.00913809984922409
1790521811587715300,1.93871533203125,-0.07140100747346878,-0.012430127710103989,-0.005430980119854212
1790521811597718500,1.948718505859375,-0.06808021664619446,0.007087581790983677,0.0034372801892459393
1790521811607720400,1.958720458984375,-0.0659443661570549,0.02964322455227375,0.01357327215373516
1790521811617723400,1.968723388671875,-0.06359590590000153,0.06006746366620064,0.025757599622011185
1790521811627726300,1.978726318359375,-0.06423639506101608,0.09573251754045486,0.03770054504275322
1790521811637729300,1.988729248046875,-0.06360320001840591,0.12752538919448853,0.04861957207322121
1790521811647731200,1.998731201171875,-0.06155868619680405,0.14715155959129333,0.05774755775928497
1790521811657734400,2.008734375,-0.047476258128881454,0.13679619133472443,0.04743053391575813
1790521811667737600,2.018737548828125,-0.032853905111551285,0.10084564238786697,0.015392972156405449
1790521811677740300,2.028740234375,-0.027733907103538513,0.05194270610809326,-0.030699217692017555
1790521811687742500,2.038742431640625,-0.02770567685365677,0.010730020701885223,-0.07410500943660736
1790521811697745400,2.048745361328125,-0.027737244963645935,-0.013150558806955814,-0.11461655050516129
1790521811707748400,2.058748291015625,-0.022309722378849983,-0.003223092993721366,-0.131326824426651
1790521811717751600,2.06875146484375,-0.009438271634280682,0.0184630136936903,-0.10618318617343903
1790521811727753500,2.07875341796875,0.015230854973196983,0.03429444506764412,-0.05469949170947075
1790521811737756400,2.08875634765625,0.03617754206061363,0.03624119982123375,0.012364163063466549
1790521811747759400,2.09875927734375,0.040955252945423126,0.02962750568985939,0.07708856463432312
1790521811757762600,2.108762451171875,0.03202153742313385,0.007726721465587616,0.1257798671722412
1790521811767764200,2.11876416015625,0.019642101600766182,-0.0038441806100308895,0.14286191761493683
1790521811777767400,2.128767333984375,0.0012285991106182337,-0.014482456259429455,0.12074350565671921
1790521811787770600,2.1387705078125,-0.013580706901848316,-0.016199398785829544,0.06576467305421829
1790521811797773300,2.148773193359375,-0.03211377561092377,-0.005741039756685495,0.008504142984747887
1790521811807775500,2.158775390625,-0.039381276816129684,0.019360318779945374,-0.026330536231398582
1790521811817778400,2.1687783203125,-0.041897617280483246,0.030988387763500214,-0.02483350597321987
1790521811827781400,2.178781494140625,-0.03235604241490364,0.023647384718060493,-0.0011912933550775051
1790521811837783300,2.188783203125,-0.01723509654402733,0.02294614166021347,0.02621885947883129
1790521811847786500,2.198786376953125,-0.00779791921377182,0.03317747265100479,0.04884427413344383
1790521811857789400,2.20878955078125,0.00864181574434042,0.057203009724617004,0.05851573497056961
1790521811867792400,2.21879248046875,0.024944888427853584,0.08613932132720947,0.06043241173028946
1790521811877794600,2.228794677734375,0.028474614024162292,0.09507176280021667,0.0493280366063118
1790521811887797200,2.23879736328125,0.02949167788028717,0.07716333866119385,0.03154744207859039
1790521811897800400,2.248800537109375,0.030229441821575165,0.043685149401426315,0.012206165120005608
1790521811907803600,2.2588037109375,0.03365267068147659,0.0204211063683033,-0.003997571766376495
1790521811917805300,2.268805419921875,0.03861648216843605,-0.003715244820341468,-0.010697080753743649
1790521811927808500,2.27880859375,0.036896612495183945,-0.0068433936685323715,-0.0036966956686228514
1790521811937811500,2.2888115234375,0.041487183421850204,0.005026489496231079,0.016241123899817467
1790521811947814400,2.298814453125,0.052618928253650665,0.01898251846432686,0.042767539620399475
1790521811957816300,2.30881640625,0.058637842535972595,0.04214436188340187,0.07725101709365845
1790521811967819500,2.318819580078125,0.060315899550914764,0.05503459274768829,0.11216506361961365
1790521811977822200,2.328822265625,0.06771060079336166,0.04945054650306702,0.14474225044250488
1790521811987825400,2.338825439453125,0.07264464348554611,0.04007648304104805,0.16493433713912964
1790521811997827600,2.34882763671875,0.07565906643867493,0.0398624949157238,0.1726922243833542
1790521812007830300,2.358830322265625,0.07165686786174774,0.03478730842471123,0.17302298545837402
1790521812017833500,2.36883349609375,0.06681510806083679,0.034364257007837296,0.1663406789302826
1790521812027836400,2.37883642578125,0.046849921345710754,0.03624657914042473,0.155290424823761
1790521812037838300,2.38883837890625,0.03350117802619934,0.04421652853488922,0.14773723483085632
1790521812047841300,2.39884130859375,0.03187531977891922,0.06017392501235008,0.1499234288930893
1790521812057844500,2.408844482421875,0.025715062394738197,0.0589449405670166,0.13658210635185242
1790521812067847400,2.418847412109375,0.016185738146305084,0.07155127823352814,0.11043041199445724
1790521812077849300,2.428849365234375,0.0031021470203995705,0.09717539697885513,0.08004254847764969
1790521812087852500,2.4388525390625,-0.01311996579170227,0.15890665352344513,0.050880126655101776
1790521812097855200,2.448855224609375,-0.02241392806172371,0.20698899030685425,0.022462105378508568
1790521812107858400,2.4588583984375,-0.020458901301026344,0.2512935996055603,0.007805663626641035
1790521812117860400,2.4688603515625,-0.002958276541903615,0.17051899433135986,-0.015284081920981407
1790521812127863300,2.47886328125,0.032381072640419006,0.0528261736035347,-0.06617682427167892
1790521812137866500,2.488866455078125,0.048472948372364044,0.01876765489578247,-0.1378733366727829
1790521812147869400,2.498869384765625,0.02636604942381382,0.007845498621463776,-0.22300128638744354
1790521812157871400,2.508871337890625,-0.006365327630192041,-0.028081070631742477,-0.3167884647846222
1790521812167874300,2.518874267578125,-0.04401816427707672,-0.03182361274957657,-0.4093815088272095
1790521812177877500,2.52887744140625,-0.07072392851114273,0.021252695471048355,-0.47373315691947937
1790521812187880400,2.53888037109375,-0.060971956700086594,0.04764622077345848,-0.503462553024292
1790521812197882400,2.54888232421875,-0.056525811553001404,0.03694004565477371,-0.4927547872066498
1790521812207885600,2.558885498046875,-0.041699476540088654,-0.017937077209353447,-0.46589770913124084
1790521812217888300,2.56888818359375,-0.026131967082619667,-0.07424775511026382,-0.4198143780231476
1790521812227891500,2.578891357421875,-0.020572884008288383,-0.08785757422447205,-0.3520379960536957
1790521812237893400,2.588893310546875,-0.026346618309617043,-0.08028221130371094,-0.257191926240921
1790521812247896300,2.598896240234375,-0.02665158547461033,-0.06934375315904617,-0.14704672992229462
1790521812257899500,2.6088994140625,-0.02934466488659382,-0.07028096169233322,-0.03375476226210594
1790521812267901400,2.6189013671875,-0.026364853605628014,-0.07443229854106903,0.06299015134572983
1790521812277904400,2.628904296875,-0.02334379218518734,-0.08415954560041428,0.12061217427253723
1790521812287907300,2.6389072265625,-0.01570291630923748,-0.08840569108724594,0.1271829903125763
1790521812297910500,2.64891064453125,-0.006875497754663229,-0.07578569650650024,0.10846772789955139
1790521812307912400,2.658912353515625,0.007563629187643528,-0.08277622610330582,0.11027255654335022
1790521812317915400,2.668915283203125,0.0166188795119524,-0.11133814603090286,0.12807364761829376
1790521812327918600,2.678918701171875,0.014309919439256191,-0.1334647685289383,0.14607982337474823
1790521812337921300,2.68892138671875,0.012802199460566044,-0.12180711328983307,0.14670102298259735
1790521812347923500,2.69892333984375,0.006434048525989056,-0.09547030925750732,0.1047264114022255
1790521812357926400,2.708926513671875,0.0007973071769811213,-0.07357718795537949,0.04061757028102875
1790521812367929300,2.718929443359375,-0.005775907076895237,-0.08307668566703796,-0.006533162668347359
1790521812377932300,2.728932373046875,-0.012800072319805622,-0.1070542111992836,-0.017421063035726547
1790521812387934500,2.7389345703125,-0.008190672844648361,-0.18109674751758575,0.0001091938465833664
1790521812397937700,2.748937744140625,-0.0364266037940979,-0.12260834872722626,0.07663916051387787
1790521812407940400,2.7589404296875,-0.0326763391494751,-0.0952768549323082,0.16370800137519836
1790521812417943600,2.768943603515625,-0.00468080909922719,-0.12222392857074738,0.2575317323207855
1790521812427945700,2.77894580078125,0.03608206659555435,-0.15804797410964966,0.35494109988212585
1790521812437948400,2.788948486328125,0.08896033465862274,-0.18257823586463928,0.4560260474681854
1790521812447951600,2.79895166015625,0.17437508702278137,-0.2169407308101654,0.5580887198448181
1790521812457954600,2.80895458984375,0.3196823000907898,-0.32683509588241577,0.6042287349700928
1790521812467956500,2.81895654296875,0.4214235842227936,-0.1359061300754547,0.46708258986473083
1790521812477959700,2.828959716796875,0.43413299322128296,0.405149906873703,0.03893471509218216
1790521812487962400,2.83896240234375,0.4000791609287262,0.05957362428307533,-0.2772861123085022
1790521812497965600,2.848965576171875,0.3481094241142273,-0.2316206693649292,-0.45672643184661865
1790521812507967500,2.858967529296875,0.3528335988521576,-0.33570554852485657,-0.5635362267494202
1790521812517970700,2.868970703125,0.3587874174118042,-0.24294579029083252,-0.6009144186973572
1790521812527973600,2.8789736328125,0.35274845361709595,0.0326884426176548,-0.5545657873153687
1790521812537976600,2.8889765625,0.3565353751182556,0.2799592912197113,-0.44355666637420654
1790521812547978800,2.898978759765625,0.34953710436820984,0.4151669144630432,-0.3108383119106293
1790521812557981400,2.9089814453125,0.3114880621433258,0.5004115104675293,-0.20428778231143951
1790521812567984600,2.918984619140625,0.24996213614940643,0.5263067483901978,-0.1371428370475769
1790521812577987600,2.928987548828125,0.19426117837429047,0.5778831243515015,-0.09530876576900482
1790521812587989500,2.938989501953125,0.11371921002864838,0.5717304348945618,-0.06831337511539459
1790521812597992700,2.94899267578125,-0.0030277848709374666,0.47265538573265076,-0.05032489076256752
1790521812607995400,2.958995361328125,-0.1262490451335907,0.28480878472328186,-0.046369295567274094
1790521812617998600,2.96899853515625,-0.2642056941986084,-0.02118033915758133,-0.060049355030059814
1790521812628000500,2.97900048828125,-0.304659366607666,-0.01412269752472639,-0.08667483925819397
1790521812638003700,2.989003662109375,-0.1879003494977951,0.14312386512756348,-0.11254022270441055
1790521812648006700,2.999006591796875,-0.12098177522420883,-0.00012943008914589882,-0.1093638688325882
1790521812658009600,3.009009521484375,-0.17827676236629486,-0.23195789754390717,-0.09677072614431381
1790521812668012500,3.019012451171875,-0.22517557442188263,-0.26372861862182617,-0.09826555848121643
1790521812678014500,3.029014404296875,-0.23485758900642395,-0.23340794444084167,-0.08835972100496292
1790521812688017700,3.039017578125,-0.21214109659194946,-0.24830593168735504,-0.07088858634233475
1790521812698020600,3.0490205078125,-0.1835964322090149,-0.3265652060508728,-0.051819585263729095
1790521812708023600,3.0590234375,-0.1598234474658966,-0.38966402411460876,-0.03119206801056862
1790521812718025700,3.069025634765625,-0.08834762126207352,-0.3183721601963043,0.07463082671165466
1790521812728028400,3.0790283203125,0.0913851261138916,-0.25091588497161865,0.504947304725647
1790521812738031600,3.089031494140625,0.20723582804203033,-0.27009159326553345,0.7651821374893188
1790521812748034600,3.09903466796875,0.20641955733299255,-0.2769913077354431,0.8800674676895142
1790521812758036700,3.10903662109375,0.10873918980360031,-0.14030566811561584,0.7971404194831848
1790521812768039700,3.119039794921875,-0.03258012235164642,0.05702977254986763,0.5710771679878235
1790521812778042600,3.129042724609375,-0.11309646815061569,0.20147427916526794,0.3208249509334564
1790521812788045600,3.139045654296875,-0.16646887362003326,0.2369326800107956,0.11532559245824814
1790521812798047500,3.149047607421875,-0.24427762627601624,0.21776250004768372,-0.05356622114777565
1790521812808050700,3.15905078125,-0.15170295536518097,0.3321828246116638,-0.21569733321666718
1790521812818053400,3.169053466796875,0.012236698530614376,0.5395945906639099,-0.2862491309642792
1790521812828056600,3.179056640625,0.002055965829640627,0.589726984500885,-0.2976085841655731
1790521812838058500,3.18905859375,-0.1464305967092514,0.5137174129486084,-0.30332139134407043
1790521812848061400,3.1990615234375,-0.26174041628837585,0.4597330391407013,-0.2902985215187073
1790521812858064600,3.209064697265625,-0.3267498314380646,0.40531453490257263,-0.19131892919540405
1790521812868067600,3.219067626953125,-0.267509400844574,0.3937244415283203,-0.0213575828820467
1790521812878069800,3.22906982421875,-0.09450700134038925,0.3192614018917084,0.14158658683300018
1790521812888072400,3.239072509765625,0.019146598875522614,0.09431004524230957,0.25190937519073486
1790521812898075600,3.24907568359375,0.0513884536921978,-0.18017952144145966,0.2792115807533264
1790521812908078600,3.25907861328125,0.00692005455493927,-0.25257036089897156,0.2437872737646103
1790521812918080500,3.26908056640625,-0.051243215799331665,-0.1952209770679474,0.18379329144954681
1790521812928083700,3.279083740234375,-0.039923980832099915,-0.12882037460803986,0.13800103962421417
1790521812938086400,3.28908642578125,0.02973775938153267,-0.09837424755096436,0.09601028263568878
1790521812948089600,3.299089599609375,0.09190338850021362,-0.11832159012556076,0.036877989768981934
1790521812958092800,3.3090927734375,0.11455672234296799,-0.1901656538248062,-0.03626822307705879
1790521812968094500,3.319094482421875,0.10962188988924026,-0.2618643343448639,-0.10402622818946838
1790521812978097700,3.32909765625,0.09385863691568375,-0.29513972997665405,-0.1412564367055893
1790521812988100600,3.3391005859375,0.08323395997285843,-0.268693208694458,-0.1586599200963974
1790521812998103600,3.349103515625,0.06362441182136536,-0.1556246429681778,-0.16377228498458862
1790521813008105500,3.35910546875,0.02386687695980072,-0.03999605402350426,-0.14992757141590118
1790521813018108700,3.369108642578125,0.007338492199778557,0.02409118041396141,-0.11888674646615982
1790521813028111600,3.379111572265625,0.003675048239529133,0.021397393196821213,-0.08022750169038773
1790521813038114600,3.389114501953125,-0.0017862538807094097,-0.0018119753804057837,-0.03387317806482315
1790521813048116700,3.39911669921875,0.007866373285651207,-0.01740238629281521,0.012974757701158524
1790521813058119400,3.409119384765625,0.008528673090040684,-0.0026655716355890036,0.035955436527729034
1790521813068122600,3.41912255859375,-0.014318052679300308,-0.0029846185352653265,0.0451449416577816
1790521813078125600,3.42912548828125,-0.028763247653841972,0.013752656057476997,0.05021027475595474
1790521813088127500,3.43912744140625,-0.02484493888914585,0.030274376273155212,0.059926290065050125
1790521813098130700,3.449130615234375,-0.027476171031594276,0.051823556423187256,0.08395199477672577
1790521813108133600,3.459133544921875,-0.030049582943320274,0.053266189992427826,0.10990823060274124
1790521813118136600,3.469136474609375,-0.030843226239085197,0.041657570749521255,0.10755448043346405
1790521813128138500,3.479138427734375,-0.029683154076337814,0.033469416201114655,0.06759374588727951
1790521813138141700,3.4891416015625,-0.015785636380314827,0.042842961847782135,0.013521557673811913
1790521813148144400,3.499144287109375,-0.019683705642819405,0.06533335894346237,-0.02217678353190422
1790521813158147600,3.509147705078125,-0.026137063279747963,0.0761207863688469,-0.03533266484737396
1790521813168149500,3.5191494140625,-0.017235981300473213,0.10341286659240723,-0.03307030722498894
1790521813178152400,3.52915234375,-0.01001741923391819,0.12841913104057312,-0.01545459683984518
1790521813188155600,3.53915576171875,-0.010260299779474735,0.1309739053249359,0.012926710769534111
1790521813198158600,3.54915869140625,-0.004747731611132622,0.1247650608420372,0.05526108667254448
1790521813208161500,3.55916162109375,0.0030244379304349422,0.0889362245798111,0.09332457929849625
1790521813218163500,3.56916357421875,0.006394836585968733,0.04918941110372543,0.10996755212545395
1790521813228166700,3.579166748046875,0.009441759437322617,0.012878539972007275,0.09459471702575684
1790521813238169600,3.589169677734375,0.011717837303876877,0.00046555977314710617,0.05056394264101982
1790521813248172500,3.599172607421875,0.019821835681796074,0.02446516789495945,0.009470038115978241
1790521813258174700,3.6091748046875,0.019874826073646545,0.05713615566492081,-0.009170670062303543
1790521813268177400,3.619177490234375,0.011413429863750935,0.09709528833627701,-0.0031769596971571445
1790521813278180600,3.6291806640625,0.0006008634809404612,0.1441473513841629,0.005291203502565622
1790521813288183800,3.639183837890625,-0.0015584275824949145,0.17226926982402802,0.013403991237282753
1790521813298185500,3.649185546875,-0.008484244346618652,0.1438400149345398,0.013526763767004013
1790521813308188700,3.659188720703125,-0.03373048081994057,0.19940528273582458,0.16290558874607086
1790521813318191600,3.669191650390625,-0.01333611086010933,0.16613216698169708,0.2960820496082306
1790521813328194600,3.679194580078125,0.009309280663728714,0.06345479935407639,0.2007901519536972
1790521813338196500,3.689196533203125,-0.028728550300002098,-0.0815834105014801,-0.043141093105077744
1790521813348199700,3.69919970703125,-0.07168347388505936,-0.2051232010126114,-0.26550811529159546
1790521813358202600,3.70920263671875,-0.06206342205405235,-0.24527372419834137,-0.34622272849082947
1790521813368205600,3.71920556640625,-0.03539532795548439,-0.1904618740081787,-0.28296199440956116
1790521813378208500,3.72920849609375,-0.02023261785507202,-0.1564013659954071,-0.13963547348976135
1790521813388210400,3.73921044921875,0.0027446027379482985,-0.1573915332555771,-0.0014618788845837116
1790521813398213600,3.749213623046875,0.03776833042502403,-0.1777111291885376,0.06693533062934875
1790521813408216600,3.759216552734375,0.054328400641679764,-0.1485884040594101,0.05161149427294731
1790521813418219300,3.76921923828125,0.042201947420835495,-0.07726150751113892,-0.0125093013048172
1790521813428221200,3.77922119140625,0.025888489559292793,-0.05665397271513939,-0.07266397774219513
1790521813438224400,3.789224365234375,0.03142313286662102,-0.08955200761556625,-0.10025143623352051
1790521813448227300,3.799227294921875,0.05829283222556114,-0.12286947667598724,-0.10162749141454697
1790521813458230300,3.809230224609375,0.08570636063814163,-0.12150336802005768,-0.086398646235466
1790521813468232400,3.819232421875,0.10228880494832993,-0.11982397735118866,-0.07057414203882217
1790521813478235100,3.829235107421875,0.10135295242071152,-0.13067559897899628,-0.0774199366569519
1790521813488238300,3.83923828125,0.09128274023532867,-0.08727352321147919,-0.09253789484500885
1790521813498241300,3.8492412109375,0.07244977355003357,-0.16210001707077026,-0.11580582708120346
1790521813508244200,3.859244140625,0.0462927371263504,-0.3519895374774933,-0.1711905300617218
1790521813518246100,3.86924609375,0.024304792284965515,-0.14798398315906525,-0.19689959287643433
1790521813528249300,3.879249267578125,0.026629731059074402,-0.07956257462501526,-0.183474600315094
1790521813538252300,3.889252197265625,0.026784326881170273,-0.1281994879245758,-0.13270451128482819
1790521813548255200,3.899255126953125,0.007072407752275467,-0.12450728565454483,-0.05758952721953392
1790521813558257400,3.90925732421875,-0.01679837517440319,-0.11220362037420273,0.01384296827018261
1790521813568260000,3.919260009765625,-0.03917105495929718,-0.0862409919500351,0.07309909909963608
1790521813578263300,3.92926318359375,-0.059850648045539856,-0.14185728132724762,0.09940578788518906
1790521813588266500,3.9392666015625,-0.05406226962804794,-0.2047094851732254,0.08756191283464432
1790521813598268200,3.94926806640625,-0.014207026921212673,-0.22319453954696655,0.07131581753492355
1790521813608271400,3.959271240234375,0.02869250252842903,-0.2820512056350708,0.08085765689611435
1790521813618274300,3.9692744140625,0.039262063801288605,-0.3362591564655304,0.10761172324419022
1790521813628277200,3.97927734375,0.02773750014603138,-0.327693372964859,0.151230588555336
1790521813638279200,3.989279052734375,0.012395352125167847,-0.309422105550766,0.20680144429206848
1790521813648282400,3.999282470703125,0.0043480778113007545,-0.32659202814102173,0.2590060532093048
1790521813658285300,4.009285400390625,0.003566250903531909,-0.30811023712158203,0.2806491553783417
1790521813668288300,4.019288330078125,0.01754971221089363,-0.3090825378894806,0.27370256185531616
1790521813678291200,4.029291259765625,0.03976137191057205,-0.3633791208267212,0.26904886960983276
1790521813688293000,4.039293212890625,0.06250955909490585,-0.44121161103248596,0.29800647497177124
1790521813698296300,4.04929638671875,0.07128172367811203,-0.5210880041122437,0.3656557500362396
1790521813708299500,4.059299560546875,0.06707073003053665,-0.5211154222488403,0.42562055587768555
1790521813718302200,4.06930224609375,0.0644271969795227,-0.43279677629470825,0.4752296805381775
1790521813728304400,4.079304443359375,0.060145094990730286,-0.33378738164901733,0.4870242774486542
1790521813738307300,4.089307373046875,0.03939412906765938,-0.21538180112838745,0.4567033648490906
1790521813748310300,4.099310302734375,0.007538727484643459,-0.11139415204524994,0.386216402053833
1790521813758313200,4.109313232421875,-0.02852972410619259,-0.05917101353406906,0.2917540371417999
1790521813768315400,4.1193154296875,-0.05771290883421898,-0.012759305536746979,0.19777558743953705
1790521813778318300,4.129318359375,-0.06623023003339767,-0.17983350157737732,0.0683123990893364
1790521813788321300,4.1393212890625,-0.09347197413444519,-0.14471814036369324,-0.18243886530399323
1790521813798324200,4.14932421875,-0.08846206963062286,0.2042713463306427,-0.3877711892127991
1790521813808327200,4.1593271484375,-0.06475167721509933,0.2389872521162033,-0.5033156275749207
1790521813818329300,4.169329345703125,-0.06432617455720901,0.20203547179698944,-0.48006266355514526
1790521813828332300,4.179332275390625,-0.055431753396987915,0.19175779819488525,-0.39207980036735535
1790521813838335200,4.189335205078125,-0.0086822509765625,0.204082190990448,-0.31945422291755676
1790521813848338400,4.19933837890625,0.02638971619307995,0.2945348620414734,-0.2509627938270569
1790521813858340400,4.20934033203125,0.039529457688331604,0.3754512369632721,-0.14898982644081116
1790521813868343300,4.21934326171875,0.03938191756606102,0.33491793274879456,-0.015229634940624237
1790521813878346200,4.22934619140625,0.03999604284763336,0.26105034351348877,0.11472703516483307
1790521813888349200,4.23934912109375,0.03642287850379944,0.21414010226726532,0.20586919784545898
1790521813898352400,4.249352294921875,0.012886453419923782,0.17406415939331055,0.23203715682029724
1790521813908354300,4.259354248046875,-0.01768690161406994,0.14567911624908447,0.18561692535877228
1790521813918357200,4.269357177734375,-0.04135510325431824,0.12576502561569214,0.08075875043869019
1790521813928360200,4.279360107421875,-0.04815255478024483,0.11165480315685272,-0.03732660412788391
1790521813938363400,4.28936328125,-0.038160309195518494,0.08469881862401962,-0.13424333930015564
1790521813948365300,4.299365234375,-0.020249754190444946,0.028394527733325958,-0.202732652425766
1790521813958368300,4.3093681640625,0.0004785538767464459,-0.007142172660678625,-0.2308751344680786
1790521813968371500,4.319371337890625,0.01006300374865532,-0.004754915367811918,-0.22091224789619446
1790521813978374100,4.3293740234375,0.009752017445862293,0.006869383621960878,-0.16672183573246002
1790521813988376300,4.339376220703125,0.007494456134736538,-0.051714833825826645,-0.08379153162240982
1790521813998379300,4.349379150390625,0.0016781816957518458,-0.12166661024093628,0.014844419434666634
1790521814008382200,4.35938232421875,-0.014616901986300945,-0.21035653352737427,0.11214833706617355
1790521814018385400,4.369385498046875,-0.03050316870212555,-0.2700612246990204,0.20719878375530243
1790521814028388400,4.379388427734375,-0.0443958155810833,-0.3751703202724457,0.3075086176395416
1790521814038390300,4.389390380859375,-0.05706408619880676,-0.5379429459571838,0.3867051303386688
1790521814048393200,4.399393310546875,-0.08375055342912674,-0.5968126058578491,0.40945306420326233
1790521814058396400,4.409396484375,-0.09494597464799881,-0.4799141585826874,0.3850554823875427
1790521814068399000,4.419399169921875,-0.07236956059932709,-0.32067203521728516,0.34032076597213745
1790521814078401300,4.4294013671875,-0.04572559520602226,-0.19229719042778015,0.2763267457485199
1790521814088404200,4.439404296875,-0.03686925396323204,-0.08360878378152847,0.19695095717906952
1790521814098407200,4.4494072265625,-0.04487813264131546,0.002544023562222719,0.11131130158901215
1790521814108410400,4.459410400390625,-0.04092520475387573,0.08106333762407303,0.03155415877699852
1790521814118413300,4.469413330078125,-0.023771090433001518,0.15704244375228882,-0.04667258262634277
1790521814128415200,4.479415283203125,-0.016969909891486168,0.21180742979049683,-0.1385716199874878
1790521814138418200,4.489418212890625,-0.013144216500222683,0.2670522928237915,-0.24868670105934143
1790521814148421400,4.49942138671875,-0.015780478715896606,0.3275321424007416,-0.3517158627510071
1790521814158424300,4.50942431640625,-0.0327284000813961,0.3679147958755493,-0.4038759469985962
1790521814168426200,4.51942626953125,-0.039183102548122406,0.41388097405433655,-0.40800759196281433
1790521814178429400,4.529429443359375,-0.027680568397045135,0.45376819372177124,-0.3643478751182556
1790521814188432100,4.53943212890625,0.009153345599770546,0.4295957386493683,-0.28596997261047363
1790521814198435300,4.549435302734375,0.03953108564019203,0.365845263004303,-0.20361338555812836
1790521814208438300,4.559438232421875,0.037384044378995895,0.3303501307964325,-0.1258155256509781
1790521814218440200,4.569440185546875,0.01239087339490652,0.3058999180793762,-0.053059063851833344
1790521814228443400,4.579443359375,-0.009134392254054546,0.22764530777931213,-0.009764056652784348
1790521814238446300,4.5894462890625,-0.03283727914094925,0.26234784722328186,0.018100161105394363
1790521814248449300,4.59944921875,-0.0534629262983799,0.27263936400413513,0.029123250395059586
1790521814258451200,4.609451171875,-0.07010989636182785,0.23706337809562683,0.02437853440642357
1790521814268454400,4.619454345703125,-0.07000496983528137,0.1710422784090042,0.01758108288049698
1790521814278457300,4.629457275390625,-0.05476664751768112,0.1021897941827774,0.0062468526884913445
1790521814288460300,4.639460205078125,-0.04011819511651993,0.04254831001162529,-0.00017083343118429184
1790521814298463200,4.649463134765625,-0.02412487007677555,0.029022201895713806,0.0037101046182215214
1790521814308465200,4.659465087890625,-0.006270772311836481,0.026364633813500404,0.001698619220405817
1790521814318468400,4.66946826171875,-0.009409727528691292,0.03381425514817238,-0.006898269988596439
1790521814328471300,4.67947119140625,-0.021101271733641624,0.0064502740278840065,-0.025423485785722733
1790521814338474200,4.68947412109375,0.0018483928870409727,-0.04689842462539673,-0.03560468181967735
1790521814348476400,4.699476318359375,0.022816792130470276,-0.07090841233730316,-0.027117719873785973
1790521814358479400,4.709479248046875,0.019088050350546837,-0.0666571781039238,-0.004664970096200705
1790521814368482300,4.719482421875,0.014728988520801067,-0.05982404202222824,0.013018952682614326
1790521814378485200,4.7294853515625,0.030788760632276535,-0.06001955270767212,0.009553441777825356
1790521814388488200,4.73948828125,0.04333677515387535,-0.06313225626945496,-0.007581602782011032
1790521814398490000,4.749489990234375,0.04130937531590462,-0.06449393928050995,-0.02515503764152527
1790521814408493300,4.759493408203125,0.04486629366874695,-0.04983004182577133,-0.0228897538036108
1790521814418496500,4.76949658203125,0.049703847616910934,-0.04835387319326401,0.0067572514526546
1790521814428499700,4.779499755859375,0.046828433871269226,-0.06253014504909515,0.05689312145113945
1790521814438501600,4.789501708984375,0.04481472074985504,-0.0464315339922905,0.08926312625408173
1790521814448504600,4.799504638671875,0.04993358254432678,-0.008172563277184963,0.07383330166339874
1790521814458507800,4.8095078125,0.05637581646442413,0.030749501660466194,0.025630181655287743
1790521814468510700,4.8195107421875,0.03894968703389168,0.043682876974344254,-0.02229366824030876
1790521814478513700,4.829513671875,0.011926586739718914,0.02997650019824505,-0.039236653596162796
1790521814488515600,4.839515625,0.015072312206029892,0.012350102886557579,-0.020657643675804138
1790521814498518800,4.849518798828125,0.042209308594465256,-0.0024433869402855635,0.004119322169572115
1790521814508521500,4.859521484375,0.047803010791540146,-0.00012856721878051758,0.007722579408437014
1790521814518524700,4.869524658203125,0.027392838150262833,0.03705134615302086,-0.011501707136631012
1790521814528526800,4.87952685546875,0.010201601311564445,0.061517272144556046,-0.03466987609863281
1790521814538529500,4.889529541015625,0.00191586185246706,0.07891467958688736,-0.047535669058561325
1790521814548532700,4.89953271484375,-0.0014442484825849533,0.08051896840333939,-0.038504358381032944
1790521814558535700,4.90953564453125,0.0009487911011092365,0.04977009445428848,-0.010914910584688187
1790521814568538600,4.91953857421875,0.01074735913425684,0.023007718846201897,0.021328512579202652
1790521814578540500,4.92954052734375,0.01982358656823635,0.007117921486496925,0.04521949216723442
1790521814588543700,4.939543701171875,0.016353487968444824,-0.002751220716163516,0.043267395347356796
1790521814598546700,4.949546630859375,0.005587232764810324,0.00913321040570736,0.014414284378290176
1790521814608549600,4.959549560546875,-0.011717189103364944,0.018129367381334305,-0.02841307409107685
1790521814618551800,4.9695517578125,-0.020244911313056946,0.0061387247405946255,-0.06714595854282379
1790521814628554500,4.979554443359375,-0.0126578314229846,-0.02366391196846962,-0.07632747292518616
1790521814638557700,4.9895576171875,0.006925043649971485,-0.05824096128344536,-0.054399825632572174
1790521814648560600,4.999560546875,0.02629261650145054,-0.08201846480369568,-0.01165103167295456
1790521814658563600,5.0095634765625,0.0349588505923748,-0.07128477096557617,0.023836299777030945
1790521814668565800,5.019565673828125,0.023952007293701172,-0.04404861852526665,0.035097476094961166
1790521814678568700,5.029568603515625,0.009616616182029247,-0.006359018385410309,0.01603357493877411
1790521814688571600,5.039571533203125,-0.0013265786692500114,0.03137877210974693,-0.0313323438167572
1790521814698574800,5.049574951171875,-0.00132753886282444,0.05623253062367439,-0.07835832983255386
1790521814708576800,5.05957666015625,-0.008822206407785416,0.04917515441775322,-0.100482277572155
1790521814718579700,5.069579833984375,-0.014554261229932308,0.01846531592309475,-0.09060632437467575
1790521814728582700,5.079582763671875,-0.007730443496257067,0.2247079610824585,-0.06707756966352463
1790521814738585600,5.089585693359375,0.024763990193605423,0.27480387687683105,-0.06671610474586487
1790521814748588500,5.099588623046875,-0.017775215208530426,0.1123630627989769,-0.07372447848320007
1790521814758590700,5.1095908203125,-0.06521569937467575,0.02006056159734726,-0.09711715579032898
1790521814768593700,5.11959375,-0.056662462651729584,-0.024777419865131378,-0.09311863780021667
1790521814778596600,5.1295966796875,-0.017106369137763977,-0.05709308758378029,-0.049170203506946564
1790521814788599800,5.139599853515625,0.013515190221369267,-0.07992516458034515,0.010700585320591927
1790521814798601700,5.149601806640625,0.01552638877183199,-0.1092107966542244,0.05635134130716324
1790521814808604700,5.159604736328125,0.001935744658112526,-0.11059510707855225,0.06680504977703094
1790521814818607600,5.169607666015625,-0.008847345598042011,-0.09115353226661682,0.03602006286382675
1790521814828610600,5.179610595703125,-0.017451485618948936,-0.05997084826231003,-0.02841831184923649
1790521814838613800,5.18961376953125,-0.014616046100854874,-0.019666356965899467,-0.09702534228563309
1790521814848615700,5.19961572265625,-0.00006639852654188871,-0.003363283583894372,-0.13235004246234894
1790521814858618600,5.20961865234375,0.012025157921016216,-0.0007260784041136503,-0.11307363957166672
1790521814868621600,5.21962158203125,0.02845313400030136,0.002702475292608142,-0.052986860275268555
1790521814878624800,5.229624755859375,0.05279146879911423,0.005381294526159763,0.022947844117879868
1790521814888626700,5.239626708984375,0.06275489181280136,-0.025577420368790627,0.07387973368167877
1790521814898629600,5.249629638671875,0.04856669902801514,-0.05473063513636589,0.07476834952831268
1790521814908632800,5.2596328125,0.03172247111797333,-0.03579023480415344,0.023012472316622734
1790521814918635500,5.269635498046875,0.02312980405986309,0.007107070181518793,-0.06015106290578842
1790521814928638700,5.279638671875,0.019049309194087982,0.05236642807722092,-0.13426603376865387
1790521814938640600,5.289640625,0.0010974723845720291,0.04474339634180069,-0.14724814891815186
1790521814948643600,5.2996435546875,-0.01844560168683529,0.023272722959518433,-0.09465763717889786
1790521814958646800,5.309646728515625,-0.026210041716694832,0.015232524834573269,0.0002139597199857235
1790521814968649700,5.319649658203125,-0.02036440372467041,0.01252675335854292,0.08545881509780884
1790521814978651600,5.329651611328125,-0.011505825445055962,0.010968879796564579,0.1248614639043808
1790521814988654600,5.339654541015625,-0.01468164473772049,0.024519575759768486,0.10401103645563126
1790521814998657800,5.34965771484375,-0.01638329215347767,0.04885416850447655,0.05230023339390755
1790521815008660500,5.359660400390625,-0.019931422546505928,0.04913033917546272,0.0007070819847285748
1790521815018663700,5.36966357421875,-0.014215073548257351,0.03313460946083069,-0.022452229633927345
1790521815028665900,5.379665771484375,-0.011765764094889164,-0.013540750369429588,-0.009297013282775879
1790521815038668500,5.38966845703125,-0.014779193326830864,-0.06626307964324951,0.02014240249991417
1790521815048671700,5.399671630859375,-0.02571013942360878,-0.08103083819150925,0.04780758544802666
1790521815058674700,5.4096748046875,-0.030324678868055344,-0.06560543924570084,0.056011687964200974
1790521815068676600,5.419676513671875,-0.027813052758574486,-0.047725778073072433,0.044837601482868195
1790521815078679600,5.429679443359375,-0.023172972723841667,-0.02992216870188713,0.010280443355441093
1790521815088682800,5.439682861328125,-0.02289280854165554,-0.027849432080984116,-0.02278536558151245
1790521815098685700,5.449685791015625,-0.029741695150732994,-0.046517595648765564,-0.04158537834882736
1790521815108688600,5.459688720703125,-0.02441723644733429,-0.07233880460262299,-0.0542745403945446
1790521815118690800,5.46969091796875,0.003868057392537594,-0.060966856777668,-0.07113295048475266
1790521815128693500,5.479693603515625,0.04605332762002945,-0.08678354322910309,-0.06502179801464081
1790521815138696700,5.48969677734375,0.05662935599684715,-0.09268759936094284,-0.048623330891132355
1790521815148699600,5.49969970703125,0.029437685385346413,-0.033152900636196136,-0.01453620009124279
1790521815158701600,5.50970166015625,0.032304223626852036,-0.043914102017879486,0.016560150310397148
1790521815168704800,5.519704833984375,0.030597403645515442,-0.037948887795209885,0.038391146808862686
1790521815178707700,5.529707763671875,0.026101311668753624,-0.022766632959246635,0.04915591701865196
1790521815188710700,5.539710693359375,0.02469729259610176,-0.03797994181513786,0.04493081197142601
1790521815198713900,5.5497138671875,0.005976313725113869,-0.04364332556724548,0.0163869671523571
1790521815208715800,5.5597158203125,-0.027322255074977875,-0.03051128052175045,-0.032399747520685196
1790521815218718700,5.56971875,-0.05069772154092789,-0.025375451892614365,-0.09755782037973404
1790521815228721700,5.5797216796875,-0.06276556849479675,-0.027829021215438843,-0.15236115455627441
1790521815238724600,5.589724609375,-0.07356011122465134,-0.050903867930173874,-0.16723808646202087
1790521815248726500,5.5997265625,-0.07318460196256638,-0.06831908226013184,-0.12598279118537903
1790521815258729700,5.609729736328125,-0.059048525989055634,-0.06458184123039246,-0.04856429249048233
1790521815268732700,5.619732666015625,-0.032814525067806244,-0.052190151065588,0.030761154368519783
1790521815278735600,5.629735595703125,-0.024754181504249573,-0.034763313829898834,0.09488456696271896
1790521815288737800,5.63973779296875,-0.0294828899204731,-0.004441359080374241,0.12488240748643875
1790521815298740700,5.64974072265625,-0.03829246014356613,-0.0010010187979787588,0.11579366028308868
1790521815308743700,5.65974365234375,-0.04473571106791496,-0.009644840843975544,0.07584890723228455
1790521815318746600,5.66974658203125,-0.05064113065600395,-0.006661820225417614,0.021552709862589836
1790521815328749600,5.67974951171875,-0.04971621558070183,-0.017231639474630356,-0.016835959628224373
1790521815338751500,5.68975146484375,-0.0375991128385067,-0.038116708397865295,-0.024764327332377434
1790521815348754700,5.699754638671875,-0.01618436723947525,-0.054716724902391434,0.00465428177267313
1790521815358757600,5.709757568359375,-0.0006969720125198364,-0.04619224742054939,0.04517863318324089
1790521815368760600,5.719760498046875,0.002249549375846982,-0.015176805667579174,0.0760478675365448
1790521815378762800,5.7297626953125,-0.0048528267070651054,0.007201351225376129,0.08597873896360397
1790521815388765700,5.739765625,-0.0031971391290426254,0.023053817451000214,0.06573551893234253
1790521815398768600,5.7497685546875,0.002828106749802828,0.029391562566161156,0.02828751690685749
1790521815408771800,5.759771728515625,0.00260866223834455,0.031083201989531517,-0.011240451596677303
1790521815418774500,5.7697744140625,-0.013266081921756268,0.018936311826109886,-0.0320754311978817
1790521815428776400,5.7797763671875,-0.027946490794420242,0.006623718421906233,-0.02974383533000946
1790521815438779600,5.789779541015625,-0.03722415119409561,-0.0029294544365257025,0.0017441087402403355
1790521815448782300,5.7997822265625,-0.04005748778581619,-0.0024431615602225065,0.05598391592502594
1790521815458785500,5.80978564453125,-0.0364101380109787,-0.0015187372919172049,0.11376725882291794
1790521815468787500,5.819787353515625,-0.03717552870512009,-0.017865486443042755,0.1493966281414032
1790521815478790400,5.829790283203125,-0.0490584559738636,-0.0411575622856617,0.15954212844371796
1790521815488793600,5.839793701171875,-0.062086109071969986,-0.0653233528137207,0.1482607126235962
1790521815498796500,5.849796630859375,-0.05932263657450676,-0.08743109554052353,0.12008848041296005
1790521815508798700,5.859798828125,-0.05109799653291702,-0.09731888025999069,0.07990963757038116
1790521815518801400,5.869801513671875,-0.054459214210510254,-0.11724261194467545,0.04877020791172981
1790521815528804600,5.8798046875,-0.06288997828960419,-0.16102896630764008,0.048247162252664566
1790521815538807600,5.8898076171875,-0.05543097108602524,-0.20338942110538483,0.08702945709228516
1790521815548810500,5.899810546875,-0.033400505781173706,-0.2261064499616623,0.1515466719865799
1790521815558812700,5.909812744140625,-0.0027932722587138414,-0.21510589122772217,0.2106211930513382
1790521815568815400,5.9198154296875,0.01911708526313305,-0.1630363017320633,0.24114714562892914
1790521815578818600,5.929818603515625,0.05622425675392151,-0.34413522481918335,0.17142172157764435
1790521815588821800,5.93982177734375,0.09036944061517715,-0.11992927640676498,-0.0013417904265224934
1790521815598823400,5.949823486328125,0.0837668627500534,0.08159704506397247,-0.15978991985321045
1790521815608826600,5.95982666015625,0.045971814543008804,0.030329860746860504,-0.27907848358154297
1790521815618829600,5.96982958984375,-0.009357936680316925,0.011200275272130966,-0.33706557750701904
1790521815628832500,5.97983251953125,-0.025240497663617134,0.059503622353076935,-0.3521377444267273
1790521815638835500,5.98983544921875,-0.02331782691180706,0.03894548863172531,-0.3156943917274475
1790521815648837600,5.999837646484375,-0.011776751838624477,-0.023303238674998283,-0.25362542271614075
1790521815658840600,6.009840576171875,0.010416164062917233,-0.02773248963057995,-0.19181925058364868
1790521815668843500,6.019843505859375,0.03769785165786743,0.03940766304731369,-0.1331370323896408
1790521815678846700,6.0298466796875,0.039116960018873215,0.10655070096254349,-0.05227811262011528
1790521815688848400,6.039848388671875,0.008923900313675404,0.09544398635625839,0.044878263026475906
1790521815698851600,6.0498515625,-0.02985967881977558,0.046676117926836014,0.12282255291938782
1790521815708854500,6.0598544921875,-0.043722499161958694,0.019790709018707275,0.1493481695652008
1790521815718857500,6.069857421875,-0.031594168394804,0.034972649067640305,0.13558124005794525
1790521815728860700,6.079860595703125,-0.014566981233656406,0.02536582574248314,0.1100820004940033
1790521815738862600,6.089862548828125,-0.020545972511172295,-0.007439916953444481,0.10058906674385071
1790521815748865500,6.099865478515625,-0.03279651328921318,-0.028037337586283684,0.1079724133014679
1790521815758868500,6.109868408203125,-0.02344694919884205,-0.015644438564777374,0.11397910863161087
1790521815768871400,6.119871337890625,-0.0024870717898011208,-0.002267911797389388,0.0982627272605896
1790521815778873300,6.129873291015625,0.0076723904348909855,-0.00383284711278975,0.05650937929749489
1790521815788876500,6.13987646484375,-0.0011448031291365623,-0.01650283671915531,-0.010753283277153969
1790521815798879700,6.149879638671875,-0.0044708251953125,-0.018646415323019028,-0.083326555788517
1790521815808882400,6.15988232421875,0.003211062867194414,-0.012714223004877567,-0.12584072351455688
1790521815818885600,6.1698857421875,0.017964357510209084,-0.03411688655614853,-0.11793145537376404
1790521815828887600,6.179887451171875,0.023218508809804916,-0.07426324486732483,-0.06142396852374077
1790521815838890500,6.189890380859375,0.03371945023536682,-0.12210087478160858,0.017972242087125778
1790521815848893700,6.199893798828125,0.0550156831741333,-0.1652454137802124,0.08650895953178406
1790521815858896400,6.209896484375,0.06383121013641357,-0.18471314013004303,0.13287661969661713
1790521815868898600,6.219898681640625,0.047623470425605774,-0.17266394197940826,0.1527818888425827
1790521815878901500,6.229901611328125,0.021389568224549294,-0.16535016894340515,0.14761421084403992
1790521815888904400,6.239904541015625,0.006452698726207018,-0.1603815108537674,0.13809767365455627
1790521815898907600,6.24990771484375,0.0038195319939404726,-0.14092998206615448,0.14535699784755707
1790521815908910600,6.25991064453125,-0.00026815372984856367,-0.09657343477010727,0.16018015146255493
1790521815918912800,6.269912841796875,-0.010720555670559406,-0.07080739736557007,0.17093077301979065
1790521815928915500,6.27991552734375,-0.02394208498299122,-0.05203424394130707,0.1563185453414917
1790521815938918700,6.289918701171875,-0.024762149900197983,-0.0241315308958292,0.1071849912405014
1790521815948921300,6.29992138671875,-0.023017512634396553,-0.0010629633907228708,0.04188374802470207
1790521815958923500,6.309923583984375,-0.013613470830023289,-0.09226952493190765,-0.03270133212208748
1790521815968926500,6.319926513671875,0.005487785674631596,-0.09732633829116821,-0.13738566637039185
1790521815978929400,6.329929443359375,0.001770482398569584,-0.0008344149682670832,-0.20267434418201447
1790521815988932600,6.3399326171875,0.008808950893580914,0.0036189230158925056,-0.243352010846138
1790521815998935600,6.349935546875,0.002224985044449568,-0.014278782531619072,-0.26749828457832336
1790521816008937500,6.3599375,-0.0005502948770299554,-0.0267234668135643,-0.2932763695716858
1790521816018940400,6.3699404296875,0.010650428012013435,-0.024590808898210526,-0.3135257065296173
1790521816028943600,6.379943603515625,0.027548450976610184,0.1047341600060463,-0.2931663691997528
1790521816038946600,6.389946533203125,0.04377119615674019,0.13621558248996735,-0.20969337224960327
1790521816048948500,6.399948486328125,0.05652720481157303,0.105606809258461,-0.10022468119859695
1790521816058951700,6.40995166015625,0.07036807388067245,0.08110230416059494,0.0023058969527482986
1790521816068954400,6.419954345703125,0.09622177481651306,0.061090514063835144,0.07376010715961456
1790521816078957600,6.42995751953125,0.11234407126903534,0.028201505541801453,0.10108289867639542
1790521816088960800,6.439960693359375,0.10645928233861923,0.025510646402835846,0.092801533639431
1790521816098962400,6.44996240234375,0.10190044343471527,0.04078005999326706,0.05890067666769028
1790521816108965600,6.459965576171875,0.107169508934021,0.03962771221995354,0.018791604787111282
1790521816118968600,6.469968505859375,0.09816349297761917,0.042620040476322174,-0.0009879590943455696
1790521816128971500,6.479971435546875,0.0662846565246582,0.05033548176288605,0.003859526477754116
1790521816138973400,6.489973388671875,0.03126617148518562,0.06180655583739281,0.03329695388674736
1790521816148976600,6.4999765625,0.008977907709777355,0.04774399846792221,0.06074428930878639
1790521816158979600,6.5099794921875,-0.01457988191395998,0.025027766823768616,0.06823016703128815
1790521816168982500,6.519982421875,-0.04919271916151047,0.03262123838067055,0.07356234639883041
1790521816178985500,6.5299853515625,-0.07585390657186508,0.06799784302711487,0.07783232629299164
1790521816188987400,6.5399873046875,-0.08672972768545151,0.09977255016565323,0.08941414952278137
1790521816198990600,6.549990478515625,-0.09111390262842178,0.10006639361381531,0.11251622438430786
1790521816208993500,6.55999365234375,-0.07522282004356384,0.0934164822101593,0.13792784512043
1790521816218996500,6.56999658203125,-0.04719366133213043,0.11013658344745636,0.15359564125537872
1790521816228998700,6.57999853515625,-0.011796521954238415,0.13044771552085876,0.14398722350597382
1790521816239001600,6.590001708984375,-0.003085412783548236,0.13382162153720856,0.09290754795074463
1790521816249004500,6.600004638671875,-0.01604888215661049,0.1328844577074051,0.012475559487938881
1790521816259007500,6.610007568359375,-0.032184962183237076,0.14231020212173462,-0.07063329964876175
1790521816269010400,6.620010498046875,-0.029240570962429047,0.14933083951473236,-0.12613119184970856
1790521816279012400,6.630012451171875,-0.02251305989921093,0.12595248222351074,-0.14542506635189056
1790521816289015600,6.640015625,-0.01679578609764576,0.0644608810544014,-0.15489420294761658
1790521816299018500,6.6500185546875,-0.0188603438436985,0.06166641041636467,-0.15432384610176086
1790521816309021400,6.660021484375,-0.015146300196647644,0.03090503439307213,-0.1401643604040146
1790521816319023600,6.670023681640625,-0.0144879762083292,0.009503457695245743,-0.117996945977211
1790521816329026600,6.680026611328125,-0.02814040519297123,0.00490950420498848,-0.0818013921380043
1790521816339029500,6.690029541015625,-0.03620075434446335,-0.005583405494689941,-0.03745551407337189
1790521816349032700,6.70003271484375,-0.044735386967659,0.027264554053544998,0.020392604172229767
1790521816359035400,6.710035400390625,-0.04727962985634804,0.07005012035369873,0.08155456930398941
1790521816369037600,6.72003759765625,-0.044617269188165665,0.08984220027923584,0.14153267443180084
1790521816379040500,6.73004052734375,-0.04867515340447426,0.09287867695093155,0.18197889626026154
1790521816389043500,6.74004345703125,-0.07397891581058502,0.09272074699401855,0.19911473989486694
1790521816399046700,6.750046630859375,-0.0935082733631134,0.0961824581027031,0.18418066203594208
1790521816409048600,6.760048583984375,-0.09294741600751877,0.12318105250597,0.14023716747760773
1790521816419051500,6.770051513671875,-0.08149503916501999,0.14546050131320953,0.07578666508197784
1790521816429054500,6.780054443359375,-0.06181401014328003,0.12315625697374344,-0.009310116060078144
1790521816439057700,6.7900576171875,-0.04406670480966568,0.07941277325153351,-0.09764770418405533
1790521816449060400,6.800060302734375,-0.02992318943142891,0.030412741005420685,-0.15787428617477417
1790521816459062500,6.8100625,-0.010760403238236904,-0.0019666231237351894,-0.17506718635559082
1790521816469065500,6.8200654296875,0.005565572064369917,-0.0053597562946379185,-0.15967917442321777
1790521816479068400,6.830068359375,0.009425115771591663,0.011216073296964169,-0.12690074741840363
1790521816489071600,6.840071533203125,0.008282086811959743,0.019408490508794785,-0.0980168953537941
1790521816499073500,6.850073486328125,0.005781153682619333,-0.0005771191790699959,-0.08106066286563873
1790521816509076500,6.860076416015625,0.015362142585217953,-0.022569768130779266,-0.07107008248567581
1790521816519079400,6.870079345703125,0.023600779473781586,-0.037334706634283066,-0.047653164714574814
1790521816529082600,6.88008251953125,0.027380868792533875,-0.05908713862299919,-0.007647691760212183
1790521816539085600,6.89008544921875,0.022631844505667686,-0.08093413710594177,0.035060252994298935
1790521816549087500,6.90008740234375,0.01772363856434822,-0.07252494245767593,0.06290093809366226
1790521816559090700,6.910090576171875,0.015191301703453064,-0.037145648151636124,0.07104991376399994
1790521816569093400,6.92009326171875,0.01408742181956768,-0.008402684703469276,0.060376495122909546
1790521816579096600,6.9300966796875,0.008130133152008057,0.028093282133340836,0.04369581863284111
1790521816589099500,6.940099609375,0.004779610317200422,0.04160402715206146,0.039688292890787125
1790521816599101400,6.950101318359375,0.0060595255345106125,0.06982714682817459,0.04328755661845207
1790521816609104600,6.960104736328125,0.005404654424637556,0.09264510869979858,0.04580424353480339
1790521816619107600,6.970107666015625,-0.0013444186188280582,0.10278451442718506,0.04285747557878494
1790521816629110500,6.980110595703125,-0.01567142643034458,0.11891475319862366,0.026756003499031067
1790521816639112400,6.990112548828125,-0.019449660554528236,0.12809504568576813,-0.008021354675292969
1790521816649115600,7.00011572265625,-0.015485811978578568,0.1455422192811966,-0.053117457777261734
1790521816659118600,7.01011865234375,-0.019404465332627296,0.10050760954618454,-0.08379052579402924
1790521816669121500,7.02012158203125,-0.017117077484726906,0.08643174171447754,-0.09274061024188995
1790521816679124500,7.03012451171875,-0.00984143652021885,0.06282058358192444,-0.0833127424120903
1790521816689126400,7.04012646484375,-0.004119369201362133,0.05939282476902008,-0.07255037873983383
1790521816699129600,7.050129638671875,-0.007732790894806385,0.07407687604427338,-0.05402825027704239
1790521816709132500,7.060132568359375,-0.017645075917243958,0.0582028403878212,-0.03213946148753166
1790521816719135500,7.070135498046875,-0.028599483892321587,0.020859409123659134,-0.012146059423685074
1790521816729137700,7.0801376953125,-0.03253217414021492,-0.011219166219234467,0.009099841117858887
1790521816739140600,7.090140625,-0.030865229666233063,-0.02978046052157879,0.028824979439377785
1790521816749143600,7.1001435546875,-0.02014840394258499,-0.024048538878560066,0.047426626086235046
1790521816759146500,7.110146484375,-0.012460742145776749,-0.006514720618724823,0.07104163616895676
1790521816769149400,7.1201494140625,-0.015805140137672424,-0.0027127915527671576,0.09802345186471939
1790521816779151400,7.1301513671875,-0.023137660697102547,0.0013854627031832933,0.12705440819263458
1790521816789154600,7.140154541015625,-0.02406790293753147,0.022796744480729103,0.13958539068698883
1790521816799157500,7.150157470703125,-0.018083905801177025,0.03354847431182861,0.13121460378170013
1790521816809160400,7.160160400390625,-0.003408558201044798,0.06788593530654907,0.08290353417396545
1790521816819163600,7.17016357421875,0.0034207033459097147,0.09610889852046967,0.013064257800579071
1790521816829165600,7.18016552734375,0.0002787059056572616,0.10326534509658813,-0.0523536317050457
1790521816839168500,7.19016845703125,0.0056383670307695866,0.06438209116458893,-0.08956455439329147
1790521816849171700,7.200171630859375,0.01954139955341816,0.020540600642561913,-0.09064286947250366
1790521816859174400,7.21017431640625,0.029922567307949066,0.01265797857195139,-0.0684160441160202
1790521816869176600,7.220176513671875,0.023912612348794937,-0.009849460795521736,-0.05201416835188866
1790521816879179500,7.230179443359375,0.02788040228188038,-0.019254259765148163,-0.06186868995428085
1790521816889182500,7.240182373046875,0.022378312423825264,-0.03368806093931198,-0.09271129220724106
1790521816899185700,7.250185546875,0.013681394048035145,-0.04559711366891861,-0.12505662441253662
1790521816909188600,7.260188720703125,0.007155583705753088,-0.047378238290548325,-0.13160401582717896
1790521816919190500,7.2701904296875,0.0001561596873216331,-0.02894524298608303,-0.10257860273122787
1790521816929193500,7.280193359375,-0.0128429951146245,-0.03499381244182587,-0.03538651764392853
1790521816939196700,7.29019677734375,-0.027154874056577682,-0.039833541959524155,0.039086028933525085
1790521816949199400,7.300199462890625,-0.0233505479991436,-0.04629676789045334,0.1020471453666687
1790521816959201500,7.310201416015625,0.004551391117274761,-0.04722354933619499,0.13240399956703186
1790521816969204500,7.32020458984375,-0.0032063971739262342,-0.051985546946525574,0.14380072057247162
1790521816979207400,7.33020751953125,-0.03144624084234238,-0.07782250642776489,0.13875651359558105
1790521816989210600,7.340210693359375,-0.02911570854485035,-0.07697002589702606,0.1189868152141571
1790521816999213600,7.350213623046875,-0.015381840988993645,-0.036182232201099396,0.10483287274837494
1790521817009215500,7.360215576171875,-0.005409367848187685,-0.005294090136885643,0.08835163712501526
1790521817019218400,7.370218505859375,-0.010030760429799557,-0.006213026121258736,0.07268139719963074
1790521817029221600,7.3802216796875,-0.012752245180308819,-0.0019453107379376888,0.05771655961871147
1790521817039224600,7.390224609375,-0.01096323225647211,0.026502646505832672,0.03554742783308029
1790521817049227500,7.4002275390625,-0.012237820774316788,0.060159407556056976,0.012352358549833298
1790521817059229700,7.410229736328125,-0.005596850533038378,0.06195114180445671,-0.010725737549364567
1790521817069232400,7.420232421875,0.002253882121294737,0.04312685504555702,-0.01992323063313961
1790521817079235600,7.430235595703125,0.011028718203306198,0.016156993806362152,-0.01853346638381481
1790521817089238500,7.440238525390625,0.013560851104557514,0.00009626848623156548,-0.013608217239379883
1790521817099240400,7.450240478515625,0.01539570651948452,0.0053285881876945496,-0.009188133291900158
1790521817109243600,7.46024365234375,0.01670864410698414,0.010943863540887833,-0.012353300116956234
1790521817119246600,7.47024658203125,0.0016242836136370897,0.010753678157925606,-0.000501078087836504
1790521817129249500,7.48024951171875,-0.013872118666768074,0.0001923807431012392,0.02354833111166954
1790521817139252500,7.49025244140625,-0.032952528446912766,-0.03165314346551895,0.04848600924015045
1790521817149254700,7.500254638671875,-0.0435018390417099,-0.06452028453350067,0.06234190613031387
1790521817159257600,7.510257568359375,-0.03903038054704666,-0.06410015374422073,0.06041530892252922
1790521817169260500,7.520260498046875,-0.03733421489596367,-0.06088945269584656,0.05432412773370743
1790521817179263500,7.530263427734375,-0.0379260815680027,-0.06408146768808365,0.04296036437153816
1790521817189266400,7.540266357421875,-0.03316861018538475,-0.057692546397447586,0.031057368963956833
1790521817199268600,7.5502685546875,-0.02294035814702511,-0.06353648006916046,0.020717637613415718
1790521817209271600,7.560271484375,-0.01323260273784399,-0.050142914056777954,0.029185958206653595
1790521817219274500,7.5702744140625,0.007149900775402784,-0.046586260199546814,0.05732651427388191
1790521817229277700,7.580277587890625,0.026082046329975128,-0.052259594202041626,0.09468799829483032
1790521817239280400,7.5902802734375,0.03532736375927925,-0.06934399157762527,0.11924096196889877
1790521817249282600,7.600282470703125,0.038831550627946854,-0.08053939044475555,0.12369509786367416
1790521817259285500,7.610285400390625,0.039023447781801224,-0.07425789535045624,0.09598863869905472
1790521817269288400,7.620288330078125,0.03735018149018288,-0.03385002166032791,0.03527043014764786
1790521817279291600,7.630291748046875,0.020254310220479965,0.014576805755496025,-0.03415464237332344
1790521817289293600,7.64029345703125,0.0044915927574038506,0.015185603871941566,-0.08188966661691666
1790521817299296500,7.650296630859375,0.008849263191223145,0.005009555257856846,-0.09513252973556519
1790521817309299500,7.660299560546875,0.017518917098641396,-0.019089922308921814,-0.07162880897521973
1790521817319302700,7.670302734375,0.023529453203082085,-0.05954378843307495,-0.03414732962846756
1790521817329305600,7.6803056640625,0.024673547595739365,-0.08773814141750336,-0.006650988478213549
1790521817339307500,7.6903076171875,0.01798945665359497,-0.07315350323915482,-0.0025407024659216404
1790521817349310700,7.700310791015625,0.011506792157888412,-0.06682077795267105,0.001375742256641388
1790521817359313400,7.7103134765625,0.012985460460186005,-0.12103990465402603,0.028491288423538208
1790521817369316600,7.720316650390625,0.004743508994579315,-0.11821908503770828,0.08333483338356018
1790521817379318500,7.730318603515625,0.005264558829367161,-0.1604580134153366,0.17369575798511505
1790521817389321500,7.740321533203125,0.05335485562682152,-0.14884451031684875,0.24934551119804382
1790521817399324700,7.75032470703125,0.09967466443777084,-0.10193150490522385,0.27002406120300293
1790521817409327600,7.76032763671875,0.026839610189199448,-0.02209073305130005,0.29244574904441833
1790521817419330000,7.770330078125,0.05506763234734535,0.0338357575237751,0.2636740207672119
1790521817429332200,7.780332275390625,0.12908779084682465,0.03505575284361839,0.2067982256412506
1790521817439335200,7.790335205078125,0.13032647967338562,-0.08674848824739456,0.10860463976860046
1790521817449338000,7.800338134765625,0.0185320433229208,-0.003760389983654022,-0.06136522442102432
1790521817459341300,7.81034130859375,0.05281324312090874,0.04706669971346855,-0.19139422476291656
1790521817469344300,7.82034423828125,0.0840795561671257,0.1525997817516327,-0.26188305020332336
1790521817479346200,7.83034619140625,0.11496924608945847,0.3148651719093323,-0.26659640669822693
1790521817489349000,7.84034912109375,0.17346318066120148,0.46889227628707886,-0.22391444444656372
1790521817499352300,7.850352294921875,0.18340395390987396,0.46582934260368347,-0.1464855819940567
1790521817509355300,7.860355224609375,0.13424386084079742,0.19028697907924652,-0.08606963604688644
1790521817519358200,7.870358154296875,0.05414031445980072,0.01866544596850872,-0.030257662758231163
1790521817529360400,7.8803603515625,-0.02204287238419056,-0.11340337246656418,0.02398107573390007
1790521817539363000,7.890363037109375,-0.010721859522163868,-0.21160094439983368,0.028363261371850967
1790521817549366300,7.9003662109375,-0.0020532705821096897,-0.12235203385353088,-0.014215358532965183
1790521817559369200,7.910369140625,-0.08969387412071228,0.12226123362779617,0.00342836556956172
1790521817569372200,7.9203720703125,0.03010469675064087,0.13427741825580597,-0.07266507297754288
1790521817579374300,7.930374267578125,0.0634685531258583,0.0926714688539505,-0.1651567667722702
1790521817589377300,7.940377197265625,-0.04078355059027672,0.12389250099658966,-0.20882168412208557
1790521817599380200,7.950380126953125,-0.0684804692864418,0.0812569260597229,-0.179204523563385
1790521817609383200,7.960383056640625,-0.0013554934412240982,-0.019741863012313843,-0.10255074501037598
1790521817619385300,7.97038525390625,0.05197158828377724,-0.07720351219177246,-0.03953670710325241
1790521817629388000,7.980387939453125,0.024651816114783287,-0.08332159370183945,-0.01130187138915062
1790521817639391200,7.99039111328125,-0.0200638547539711,-0.07734772562980652,0.017038023099303246
1790521817649394200,8.000394287109375,-0.0323018804192543,-0.08833593130111694,0.05852501094341278
1790521817659397000,8.010397216796875,-0.027563758194446564,-0.10132171958684921,0.09948520362377167
1790521817669399300,8.0203994140625,-0.036641675978899,-0.08592492341995239,0.11564367264509201
1790521817679402200,8.03040234375,-0.049857527017593384,-0.06026732921600342,0.11053550243377686
1790521817689405200,8.0404052734375,-0.05084848776459694,-0.027819639071822166,0.09182892739772797
1790521817699408400,8.050408447265625,-0.055633027106523514,0.009670943021774292,0.07491511106491089
1790521817709411000,8.0604111328125,-0.06393996626138687,0.009102890267968178,0.05558055639266968
1790521817719413200,8.070413330078125,-0.06225261464715004,-0.012474778108298779,0.03551661968231201
1790521817729416200,8.080416259765625,-0.05130116268992424,-0.017597902566194534,0.001977299340069294
1790521817739419100,8.090419189453126,-0.040346477180719376,0.00013430952094495296,-0.034968312829732895
1790521817749422300,8.10042236328125,-0.028227228671312332,0.03053775429725647,-0.06809137761592865
1790521817759425300,8.11042529296875,-0.012586330063641071,0.04747709631919861,-0.08680999279022217
1790521817769427200,8.12042724609375,0.007414808496832848,0.029951635748147964,-0.08056674897670746
1790521817779430100,8.13043017578125,0.022252749651670456,-0.013671726919710636,-0.057494375854730606
1790521817789433300,8.140433349609374,0.009016839787364006,-0.038479339331388474,-0.03849272429943085
1790521817799436000,8.15043603515625,-0.014322178438305855,-0.028483444824814796,-0.044298749417066574
1790521817809438200,8.160438232421875,-0.041219573467969894,0.025272196158766747,-0.060070257633924484
1790521817819441400,8.17044140625,-0.06522105634212494,0.09906037151813507,-0.08330674469470978
1790521817829444000,8.180444091796875,-0.07066722214221954,0.1563151329755783,-0.0908256471157074
1790521817839447300,8.190447265625,-0.05832661688327789,0.18516325950622559,-0.07294748723506927
1790521817849450000,8.200449951171874,-0.04261796176433563,0.172782763838768,-0.034024856984615326
1790521817859452200,8.2104521484375,-0.025735031813383102,0.11026734858751297,0.013133635744452477
1790521817869455000,8.220455078125,-0.006287831347435713,0.04064539819955826,0.05946837738156319
1790521817879458300,8.230458251953126,0.02190028689801693,-0.017501072958111763,0.0928637683391571
1790521817889461200,8.240461181640624,0.0498669408261776,-0.05441248416900635,0.10352014005184174
1790521817899464200,8.250464111328125,0.05730833113193512,-0.054598137736320496,0.08748403936624527
1790521817909466400,8.26046630859375,0.05361852049827576,-0.03925806283950806,0.05399719253182411
1790521817919469000,8.270468994140625,0.05308268964290619,-0.00528746098279953,0.019445132464170456
1790521817929472300,8.28047216796875,0.06893382221460342,0.01896568015217781,-0.00971568189561367
1790521817939475200,8.29047509765625,0.0958464965224266,0.011646831408143044,-0.02895277924835682
1790521817949478100,8.30047802734375,0.11342122405767441,-0.019631462171673775,-0.040473878383636475
1790521817959480300,8.310480224609375,0.12127811461687088,-0.0327550545334816,-0.05290396884083748
1790521817969483300,8.320483154296875,0.12515167891979218,-0.03460674732923508,-0.06402213871479034
1790521817979486200,8.330486328125,0.13292084634304047,-0.050118617713451385,-0.06582973152399063
1790521817989489400,8.340489501953124,0.1325669139623642,-0.05896696820855141,-0.07246047258377075
1790521817999492000,8.3504921875,0.1019209772348404,-0.03819592669606209,-0.0819709524512291
1790521818009494300,8.360494384765625,0.06748630106449127,-0.015033083036541939,-0.08193233609199524
1790521818019497200,8.370497314453125,0.04216834902763367,0.007852093316614628,-0.06770043820142746
1790521818029500200,8.380500244140626,0.02550814487040043,0.03721477463841438,-0.0589682012796402
1790521818039503000,8.390503173828124,0.010864600539207458,0.07240414619445801,-0.05493239313364029
1790521818049505300,8.40050537109375,0.00885817501693964,0.08066447079181671,-0.05005055293440819
1790521818059508200,8.41050830078125,0.01481324527412653,0.07179278135299683,-0.043590862303972244
1790521818069511200,8.42051123046875,0.0182708278298378,0.05424360930919647,-0.0339941643178463
1790521818079514400,8.430514404296876,0.01466519758105278,0.008373230695724487,-0.0013631749898195267
1790521818089517000,8.44051708984375,0.010586566291749477,-0.06792793422937393,0.054627925157547
1790521818099519200,8.450519287109374,-0.006712921895086765,-0.12401462346315384,0.10511406511068344
1790521818109522200,8.460522216796875,-0.0344979465007782,-0.12813825905323029,0.1297224760055542
1790521818119525000,8.470525146484375,-0.05439259856939316,-0.09468159079551697,0.11342057585716248
1790521818129528300,8.4805283203125,-0.05468527972698212,-0.026786692440509796,0.055882446467876434
1790521818139531000,8.490531005859374,-0.0461382195353508,0.05257773771882057,-0.016453037038445473
1790521818149533200,8.500533203125,-0.03132624924182892,0.09644319862127304,-0.07485722005367279
1790521818159536000,8.5105361328125,-0.01109591219574213,0.08166725188493729,-0.09139589965343475
1790521818169539300,8.520539306640625,0.020449230447411537,0.03992832824587822,-0.06956250965595245
1790521818179542300,8.530542236328126,0.05442870408296585,-0.016153991222381592,-0.03554719313979149
1790521818189545200,8.540545166015624,0.06492208689451218,-0.06757697463035583,-0.012813916429877281
1790521818199547400,8.55054736328125,0.04433928057551384,-0.07649236917495728,-0.023039335384964943
1790521818209550000,8.560550048828125,0.008677156642079353,-0.04530142620205879,-0.05889134481549263
1790521818219553300,8.57055322265625,-0.023006366565823555,0.00867373589426279,-0.10204881429672241
1790521818229556200,8.58055615234375,-0.05218369513750076,0.08630568534135818,-0.13594606518745422
1790521818239559200,8.59055908203125,-0.08471900969743729,0.17124663293361664,-0.1417316496372223
1790521818249561300,8.600561279296874,-0.1031360998749733,0.22645795345306396,-0.11369255930185318
1790521818259564300,8.610564208984375,-0.10118480026721954,0.23803578317165375,-0.05231867730617523
1790521818269567200,8.620567138671875,-0.08495309948921204,0.19079184532165527,0.016267038881778717
1790521818279570200,8.630570068359376,-0.06778983771800995,0.10568225383758545,0.06301655620336533
1790521818289573000,8.640572998046874,-0.05511666089296341,0.04221725836396217,0.08452717214822769
1790521818299575000,8.650574951171874,-0.040929581969976425,0.0025156941264867783,0.0901234894990921
1790521818309578200,8.660578125,-0.02187519706785679,-0.021104147657752037,0.09634170681238174
1790521818319581200,8.670581298828125,0.016816167160868645,-0.039246633648872375,0.09702073782682419
1790521818329584000,8.680584228515626,0.05888985097408295,-0.026886368170380592,0.10362457484006882
1790521818339586300,8.69058642578125,0.06020960211753845,-0.004774744622409344,0.0994851216673851
1790521818349589000,8.700589111328124,0.060884714126586914,-0.016117148101329803,0.06944440305233002
1790521818359592200,8.71059228515625,0.06645310670137405,-0.040260862559080124,0.020454611629247665
1790521818369595400,8.720595458984375,0.05961224064230919,-0.053509023040533066,-0.03629761561751366
1790521818379598000,8.73059814453125,0.043361809104681015,-0.05853845179080963,-0.08357909321784973
1790521818389600300,8.740600341796876,0.02552475593984127,-0.04257652908563614,-0.11210261285305023
1790521818399603200,8.750603271484374,0.007659638300538063,-0.03061433881521225,-0.12057111412286758
1790521818409606100,8.760606201171875,-0.01931019313633442,-0.02501610666513443,-0.11075922846794128
1790521818419609000,8.770609130859375,-0.0409567728638649,-0.01578960008919239,-0.10305450856685638
1790521818429612000,8.780612060546876,-0.03986727446317673,0.006043792702257633,-0.11210978776216507
1790521818439614000,8.790614013671876,-0.03488413244485855,0.0484582893550396,-0.1225380152463913
1790521818449617200,8.8006171875,-0.027164427563548088,0.06993961334228516,-0.11883675307035446
1790521818459620000,8.8106201171875,-0.008191748522222042,0.03745156154036522,-0.09095156192779541
1790521818469623000,8.820623046875,0.022799989208579063,-0.03388653323054314,-0.03165334835648537
1790521818479626200,8.830626220703126,0.06275368481874466,-0.11149953305721283,0.046797461807727814
1790521818489628200,8.840628173828126,0.10318686068058014,-0.1656099110841751,0.11421432346105576
1790521818499631000,8.850631103515624,0.11508256196975708,-0.17751137912273407,0.13933366537094116
1790521818509634000,8.860634033203125,0.09356103092432022,-0.12210831046104431,0.12025745213031769
1790521818519637000,8.870636962890625,0.06356360763311386,-0.04279652237892151,0.06336580216884613
1790521818529640200,8.88064013671875,0.05241428688168526,0.008546026423573494,-0.0007689711637794971
1790521818539642000,8.89064208984375,0.06492649018764496,0.020061548799276352,-0.04953084886074066
1790521818549645300,8.900645263671874,0.0846160352230072,-0.022054744884371758,-0.07107128947973251
1790521818559648000,8.91064794921875,0.11648262292146683,-0.07317385822534561,-0.06275556981563568
1790521818569651200,8.920651123046875,0.1605941653251648,-0.1414562314748764,-0.04162285849452019
1790521818579654000,8.93065380859375,0.1877819448709488,-0.19752247631549835,-0.019997136667370796
1790521818589656000,8.940656005859376,0.17949871718883514,-0.1966814547777176,-0.006434190087020397
1790521818599659000,8.950658935546874,0.14318494498729706,-0.15238450467586517,-0.0043646288104355335
1790521818609662000,8.960661865234375,0.08740290999412537,-0.09166630357503891,-0.0015709726139903069
1790521818619665200,8.9706650390625,0.03377056494355202,-0.05110463500022888,-0.003940851427614689
1790521818629668000,8.980668212890626,-0.020717443898320198,-0.023135585710406303,-0.018574655055999756
1790521818639670000,8.990669921875,-0.06850343942642212,0.005368947982788086,-0.043177057057619095
1790521818649673000,9.0006728515625,-0.11018404364585876,0.04960165545344353,-0.05542333796620369
1790521818659676200,9.01067626953125,-0.1400439441204071,0.09775613248348236,-0.05922233685851097
1790521818669679000,9.02067919921875,-0.16842897236347198,0.1308957189321518,-0.05434875190258026
1790521818679682000,9.03068212890625,-0.17746184766292572,0.16895407438278198,-0.04882567748427391
1790521818689684200,9.040684326171874,-0.14679528772830963,0.19871464371681213,-0.03132524713873863
1790521818699687000,9.05068701171875,-0.08827389031648636,0.16983644664287567,0.007385415490716696
1790521818709690000,9.060690185546875,-0.019401349127292633,0.11638999730348587,0.03390597179532051
1790521818719693000,9.070693115234375,0.03674452751874924,0.07377032935619354,0.03684113174676895
1790521818729695000,9.080695068359375,0.06568855792284012,0.021981703117489815,0.020152166485786438
1790521818739698200,9.0906982421875,0.07808862626552582,-0.03236490488052368,-0.0035524358972907066
1790521818749701000,9.100701171875,0.07955043762922287,-0.04988450929522514,-0.029644489288330078
1790521818759704000,9.1107041015625,0.073729008436203,-0.017776701599359512,-0.038874223828315735
1790521818769707300,9.120707275390625,0.057984668761491776,0.03206329420208931,-0.04764214903116226
1790521818779709200,9.130709228515625,0.029169661924242973,0.06878123432397842,-0.06056313216686249
1790521818789712100,9.140712158203126,-0.002765634562820196,0.07493286579847336,-0.0779370665550232
1790521818799715000,9.150715087890624,-0.03449693322181702,0.05585622414946556,-0.08683782815933228
1790521818809718000,9.160718017578125,-0.056512221693992615,0.03234371170401573,-0.07995621860027313
1790521818819721000,9.170720947265625,-0.06491198390722275,0.04422337934374809,-0.0591670498251915
1790521818829723100,9.18072314453125,-0.06695383042097092,0.07934887707233429,-0.0379595011472702
1790521818839726000,9.19072607421875,-0.07325544208288193,0.09582576900720596,-0.021338606253266335
1790521818849729000,9.20072900390625,-0.0749601274728775,0.07883107662200928,-0.007616935297846794
1790521818859732200,9.210732177734375,-0.058093249797821045,0.03029780462384224,0.018273871392011642
1790521818869735000,9.22073486328125,-0.02815239317715168,-0.04202406480908394,0.06016113609075546
1790521818879737000,9.230737060546875,0.012749522924423218,-0.08906463533639908,0.11977314203977585
1790521818889740000,9.240739990234376,0.038974203169345856,-0.10492748767137527,0.1723513901233673
1790521818899743000,9.250742919921874,0.03323686495423317,-0.09196353703737259,0.18540197610855103
1790521818909746200,9.26074609375,0.007434029597789049,-0.0617544986307621,0.14954917132854462
1790521818919749000,9.2707490234375,0.008651793003082275,-0.009219848550856113,0.08864408731460571
1790521818929751000,9.2807509765625,0.04489129036664963,0.007736763916909695,0.034138768911361694
1790521818939754000,9.29075390625,0.08695400506258011,-0.018123293295502663,0.008552358485758305
1790521818949757200,9.300757080078125,0.11554677039384842,-0.05157392472028732,0.002941344864666462
1790521818959760100,9.310760009765625,0.13096898794174194,-0.05661359429359436,0.0009881630539894104
1790521818969763000,9.32076318359375,0.127192884683609,-0.02959023043513298,-0.013138841837644577
1790521818979765200,9.33076513671875,0.09344203025102615,0.00630075903609395,-0.0372370183467865
1790521818989768000,9.340767822265626,0.04825165495276451,0.0189859289675951,-0.06003394350409508
1790521818999771100,9.350771240234375,0.016990073025226593,0.019848797470331192,-0.06586889177560806
1790521819009774000,9.360774169921875,0.014169519767165184,0.037506088614463806,-0.06667609512805939
1790521819019777000,9.370777099609375,0.018443627282977104,0.05949021875858307,-0.0535280741751194
1790521819029779200,9.380779296875,0.014816401526331902,0.059103257954120636,-0.03698717802762985
1790521819039782100,9.3907822265625,0.00008463038830086589,0.03899393230676651,-0.012328758835792542
1790521819049785000,9.40078515625,-0.016648009419441223,-0.005981531459838152,0.020621467381715775
1790521819059788000,9.4107880859375,-0.011180970817804337,-0.07013087719678879,0.05825898051261902
1790521819069791000,9.420791015625,-0.0047933789901435375,-0.10490456968545914,0.09349473565816879
1790521819079793000,9.43079296875,-0.01398194395005703,-0.08194144815206528,0.10733605176210403
1790521819089796000,9.440796142578124,-0.024961890652775764,-0.029710736125707626,0.0987958312034607
1790521819099799000,9.450799072265625,-0.016263652592897415,0.009236829355359077,0.0894971713423729
1790521819109802000,9.460802001953125,0.008704014122486115,0.0023320515174418688,0.0909440666437149
1790521819119805200,9.47080517578125,0.044633179903030396,-0.02329248934984207,0.09825508296489716
1790521819129807000,9.48080712890625,0.07699111849069595,-0.05895834043622017,0.102675661444664
1790521819139810000,9.49081005859375,0.09392496198415756,-0.08594509214162827,0.09499949216842651
1790521819149813200,9.500813232421875,0.08890889585018158,-0.0815439522266388,0.06774096935987473
1790521819159816000,9.51081591796875,0.0795876681804657,-0.027136970311403275,0.025344155728816986
1790521819169819100,9.520819091796875,0.08058768510818481,0.03939997777342796,-0.01976766437292099
1790521819179821000,9.530821044921876,0.07894831150770187,0.08937940001487732,-0.06190960854291916
1790521819189824000,9.540823974609374,0.06543169915676117,0.08315372467041016,-0.08574756234884262
1790521819199827200,9.5508271484375,0.04342750459909439,0.04334380477666855,-0.09174225479364395
1790521819209830100,9.560830078125,0.02169477753341198,0.022197239100933075,-0.07639285922050476
1790521819219833000,9.5708330078125,0.020367823541164398,0.03135338053107262,-0.049608998000621796
1790521819229835000,9.5808349609375,0.02699137292802334,0.071957528591156,-0.03250165283679962
1790521819239838200,9.590838134765624,0.02673143520951271,0.10432236641645432,-0.028683887794613838
1790521819249841000,9.6008408203125,0.0148079302161932,0.09490889310836792,-0.018428586423397064
1790521819259844000,9.610843994140625,0.006839169189333916,0.023061901330947876,0.014565492048859596
1790521819269847000,9.620846923828125,0.006528378464281559,-0.07207446545362473,0.07067510485649109
1790521819279849000,9.630848876953126,0.005494080018252134,-0.14551180601119995,0.12041884660720825
1790521819289852200,9.64085205078125,-0.008920012973248959,-0.14915606379508972,0.1329820454120636
1790521819299855000,9.650855224609375,-0.03573751077055931,-0.07684484869241714,0.09922327846288681
1790521819309858000,9.660858154296875,-0.060309700667858124,0.017990848049521446,0.023534642532467842
1790521819319861200,9.670861328125,-0.06528446823358536,0.07780707627534866,-0.04046310484409332
1790521819329863200,9.68086328125,-0.04032532498240471,0.07075342535972595,-0.062316738069057465
1790521819339866000,9.6908662109375,-0.010777237825095654,0.01257530227303505,-0.0389665886759758
1790521819349869000,9.700869140625,-0.004024526569992304,-0.03412136435508728,0.00008041365072131157
1790521819359872000,9.7108720703125,-0.01326986774802208,-0.039908360689878464,0.029811928048729897
1790521819369875200,9.720875244140625,-0.024532373994588852,-0.020040379837155342,0.04006829485297203
1790521819379877000,9.730877197265626,-0.042014073580503464,0.0054688723757863045,0.037028323858976364
1790521819389880000,9.740880126953124,-0.04965095594525337,0.03339158371090889,0.009371930733323097
1790521819399883000,9.750883056640625,-0.03464149311184883,0.0815446600317955,-0.03759913891553879
1790521819409886200,9.76088623046875,-0.01596687361598015,0.1115449070930481,-0.08254051953554153
1790521819419889000,9.770888916015625,-0.006417896598577499,0.10976526886224747,-0.10699928551912308
1790521819429892000,9.78089208984375,0.00201846519485116,0.09327204525470734,-0.11213226616382599
1790521819439894000,9.79089404296875,0.001853476045653224,0.05640535429120064,-0.09475307911634445
1790521819449897000,9.80089697265625,0.014711749739944935,-0.0065118251368403435,-0.050186414271593094
1790521819459900200,9.810900146484375,0.026951322332024574,-0.05600983276963234,-0.006375635974109173
1790521819469903000,9.820903076171875,0.016175374388694763,-0.04716254398226738,0.01245024986565113
1790521819479906000,9.830906005859376,-0.02334466762840748,0.008832554332911968,0.004703150130808353
1790521819489908000,9.840907958984374,-0.07239504158496857,0.02992372401058674,0.0019411854445934296
1790521819499911200,9.8509111328125,-0.094002366065979,0.003386188531294465,0.031050920486450195
1790521819509914000,9.8609140625,-0.08263492584228516,-0.038418784737586975,0.07059087604284286
1790521819519917000,9.8709169921875,-0.06943729519844055,-0.06166656315326691,0.09651871770620346
1790521819529920000,9.880919921875,-0.06716880947351456,-0.045031122863292694,0.08337335288524628
1790521819539922000,9.890921875,-0.07752115279436111,-0.0011494988575577736,0.04365457594394684
1790521819549925000,9.900925048828125,-0.08572129160165787,0.04228799045085907,-0.002037009224295616
1790521819559928000,9.910927978515625,-0.06840408593416214,0.059653930366039276,-0.02751893363893032
1790521819569931000,9.920930908203125,-0.018482064828276634,0.03520131856203079,-0.016590919345617294
1790521819579934200,9.930934326171876,0.0426117479801178,-0.026583291590213776,0.0069808936677873135
1790521819589936000,9.94093603515625,0.07212623208761215,-0.06200147047638893,0.0014106263406574726
1790521819599939000,9.95093896484375,0.06094638258218765,-0.0462258905172348,-0.0400160476565361
1790521819609942000,9.96094189453125,0.042002785950899124,-0.009839119389653206,-0.08655878156423569
1790521819619945000,9.970945068359375,0.03882714360952377,0.037587087601423264,-0.10631601512432098
1790521819629948200,9.9809482421875,0.05206944793462753,0.07769961655139923,-0.10547471791505814
1790521819639950000,9.9909501953125,0.062291219830513,0.09332562237977982,-0.08767780661582947
1790521819649953000,10.000953125,0.06174899637699127,0.07160327583551407,-0.05959583818912506
1790521819659956000,10.0109560546875,0.0624275729060173,0.031215913593769073,-0.02498619630932808
1790521819669959200,10.020959228515625,0.08133841305971146,-0.006967692170292139,0.025657806545495987
1790521819679962000,10.030962158203126,0.09943193942308426,-0.06045033037662506,0.08067485690116882
1790521819689964000,10.040964111328124,0.08815691620111465,-0.13563989102840424,0.12825755774974823
1790521819699967200,10.05096728515625,0.037747573107481,-0.20833759009838104,0.15005920827388763
1790521819709970000,10.060969970703125,-0.05422549322247505,-0.2091943323612213,0.1416284292936325
1790521819719973000,10.07097314453125,-0.15139080584049225,-0.12804515659809113,0.12294869869947433
1790521819729976000,10.08097607421875,-0.2194068729877472,-0.03795149177312851,0.10741207748651505
1790521819739978000,10.09097802734375,-0.25557324290275574,0.04648697376251221,0.07119075208902359
1790521819749981000,10.10098095703125,-0.287979394197464,0.2038973718881607,-0.024663865566253662
1790521819759984000,10.110984130859375,-0.32460546493530273,0.4068560302257538,-0.1587715446949005
1790521819769987000,10.120987060546875,-0.3028213381767273,0.5954818725585938,-0.25940123200416565
1790521819779990000,10.130989990234376,-0.1947210133075714,0.6663126945495605,-0.280757874250412
1790521819789992200,10.1409921875,-0.04289180040359497,0.5536971688270569,-0.20926369726657867
1790521819799995000,10.150994873046875,0.10365906357765198,0.2540229856967926,-0.06652768701314926
1790521819809998000,10.160998046875,0.23584187030792236,-0.22538544237613678,0.09666842222213745
1790521819820001000,10.1710009765625,0.3146213889122009,-0.6184289455413818,0.24737891554832458
1790521819830004000,10.18100390625,0.28993257880210876,-0.8349849581718445,0.3381351828575134
1790521819840006100,10.191006103515624,0.17353555560112,-0.818474531173706,0.31154167652130127
1790521819850009000,10.201009033203125,-0.001738266204483807,-0.5511466860771179,0.16977094113826752
1790521819860012000,10.211011962890625,-0.21402595937252045,-0.10381095856428146,-0.02284008264541626
1790521819870015200,10.22101513671875,-0.38057446479797363,0.3764595091342926,-0.19091111421585083
1790521819880018000,10.231017822265626,-0.4439377784729004,0.65470290184021,-0.2758021354675293
1790521819890021000,10.241021240234375,-0.42489296197891235,0.6900166869163513,-0.28619885444641113
1790521819900023000,10.25102294921875,-0.3467145562171936,0.5748078227043152,-0.24225974082946777
1790521819910026000,10.26102587890625,-0.2206527441740036,0.34069040417671204,-0.15160199999809265
1790521819920029000,10.27102880859375,-0.08106030523777008,0.06581486761569977,-0.04876653850078583
1790521819930032000,10.2810322265625,0.015391401015222073,-0.12359847128391266,0.03088967315852642
1790521819940035000,10.29103515625,0.06921382248401642,-0.1858711689710617,0.06429613381624222
1790521819950037000,10.301037109375,0.11311843246221542,-0.13908635079860687,0.05361153185367584
1790521819960040200,10.311040283203125,0.15020135045051575,-0.07235471159219742,0.030102213844656944
1790521819970043000,10.32104296875,0.17274154722690582,-0.06227944418787956,0.013696342706680298
1790521819980046000,10.331046142578124,0.15934215486049652,-0.11435788869857788,0.002658815123140812
1790521819990049000,10.341049072265625,0.11934547126293182,-0.15903161466121674,0.005225037224590778
1790521820000051000,10.351051025390625,0.0804753378033638,-0.1525328904390335,0.010329680517315865
1790521820010054100,10.36105419921875,0.04973766952753067,-0.07794494181871414,-0.0004161735996603966
1790521820020057000,10.37105712890625,0.014791581779718399,0.04921536147594452,-0.03624419495463371
1790521820030060000,10.38106005859375,-0.029348181560635567,0.1380235254764557,-0.06636108458042145
1790521820040063200,10.391063232421875,-0.05800628289580345,0.1380367875099182,-0.05959371477365494
1790521820050065200,10.401065185546875,-0.06206893175840378,0.05414934456348419,-0.02554626204073429
1790521820060068000,10.411068115234375,-0.05751119926571846,-0.039144229143857956,0.02198711968958378
1790521820070071000,10.421071044921876,-0.049712661653757095,-0.09555264562368393,0.06479370594024658
1790521820080074000,10.431073974609374,-0.04631156474351883,-0.09277422726154327,0.09443094581365585
1790521820090077000,10.441076904296875,-0.050735075026750565,-0.04893459752202034,0.11472076922655106
1790521820100079000,10.4510791015625,-0.053416043519973755,-0.007837027311325073,0.13267867267131805
1790521820110082000,10.46108203125,-0.03372063487768173,-0.010471161454916,0.1662110686302185
1790521820120085000,10.4710849609375,-0.0042895483784377575,-0.057458311319351196,0.21060627698898315
1790521820130088200,10.481088134765624,0.004499948583543301,-0.1368495374917984,0.2565828263759613
1790521820140091000,10.4910908203125,-0.02607480064034462,-0.21311527490615845,0.27053114771842957
1790521820150094000,10.501093994140625,-0.08449497073888779,-0.21809297800064087,0.22178466618061066
1790521820160096000,10.511095947265625,-0.11761338263750076,-0.09520463645458221,0.10934274643659592
1790521820170099000,10.521098876953126,-0.07872670143842697,0.15011325478553772,-0.034371018409729004
1790521820180102100,10.53110205078125,0.011565910652279854,0.4101751744747162,-0.17458298802375793
1790521820190105000,10.54110498046875,0.08823484927415848,0.5487388968467712,-0.26407983899116516
1790521820200108000,10.55110791015625,0.13553375005722046,0.49521195888519287,-0.2606523334980011
1790521820210110000,10.56110986328125,0.21932879090309143,0.22712405025959015,-0.1515013426542282
1790521820220113200,10.571113037109376,0.33377203345298767,-0.15730233490467072,0.02270272746682167
1790521820230116000,10.5811162109375,0.3924902081489563,-0.5050725936889648,0.1714155077934265
1790521820240119000,10.591119140625,0.3508765995502472,-0.6684548854827881,0.2203637957572937
1790521820250122000,10.6011220703125,0.2363492250442505,-0.5963079333305359,0.1326453983783722
1790521820260124000,10.6111240234375,0.10174834728240967,-0.3168365955352783,-0.06284090131521225
1790521820270127000,10.621127197265626,-0.032882701605558395,0.061719492077827454,-0.2553618848323822
1790521820280130000,10.631130126953124,-0.13495400547981262,0.31135717034339905,-0.3412821590900421
1790521820290133000,10.641133056640625,-0.18860924243927002,0.36155936121940613,-0.31263667345046997
1790521820300136200,10.65113623046875,-0.1858447790145874,0.31671977043151855,-0.21019259095191956
1790521820310138000,10.66113818359375,-0.13457387685775757,0.20423929393291473,-0.08491190522909164
1790521820320141000,10.67114111328125,-0.07167387008666992,0.040426936000585556,0.031175626441836357
1790521820330144000,10.68114404296875,-0.018971771001815796,-0.12360034883022308,0.12273270636796951
1790521820340147000,10.69114697265625,0.01156768761575222,-0.2136440873146057,0.1669527292251587
1790521820350150100,10.701150146484375,0.042454496026039124,-0.20272831618785858,0.16049537062644958
1790521820360152000,10.711152099609375,0.07867517322301865,-0.11824645102024078,0.12609300017356873
1790521820370155000,10.721155029296876,0.11530588567256927,-0.05391247197985649,0.07739976048469543
1790521820380158000,10.731157958984374,0.12407659739255905,-0.022656943649053574,0.029289914295077324
1790521820390161200,10.7411611328125,0.12100144475698471,-0.0035194677766412497,-0.011269763112068176
1790521820400164000,10.7511640625,0.12461221218109131,-0.007977103814482689,-0.038178522139787674
1790521820410167000,10.7611669921875,0.11009079962968826,-0.038041528314352036,-0.04867536947131157
1790521820420169200,10.771169189453126,0.05631207674741745,-0.04967043548822403,-0.05104799568653107
1790521820430172700,10.781172607421874,-0.010266950353980064,-0.012858360074460506,-0.047613050788640976
1790521820440175600,10.791175537109375,-0.04573705792427063,0.05231478437781334,-0.041889917105436325
1790521820450178600,10.801178466796875,-0.036573123186826706,0.10470528155565262,-0.02374393865466118
1790521820460181500,10.811181396484375,-0.019601518288254738,0.08798438310623169,-0.001177002675831318
1790521820470183700,10.82118359375,-0.014438715763390064,-0.012578440830111504,0.0226747989654541
1790521820480186600,10.8311865234375,-0.004081924445927143,-0.14256972074508667,0.047504886984825134
1790521820490189600,10.841189453125,0.007251689676195383,-0.22019952535629272,0.05907392129302025
1790521820500192800,10.85119287109375,0.004314186051487923,-0.19804979860782623,0.04340922832489014
1790521820510195500,10.861195556640626,-0.039359256625175476,-0.08747906982898712,0.006495954003185034
1790521820520197600,10.87119775390625,-0.1052645742893219,0.06279671937227249,-0.04735605791211128
1790521820530200600,10.88120068359375,-0.15514904260635376,0.1852443367242813,-0.09160074591636658
1790521820540203500,10.89120361328125,-0.15491780638694763,0.23187559843063354,-0.10252262651920319
1790521820550206700,10.901206787109375,-0.112840935587883,0.20365408062934875,-0.07192850112915039
1790521820560209400,10.91120947265625,-0.05225087329745293,0.11226081848144531,-0.015481026843190193
1790521820570212600,10.921212646484374,-0.00515393540263176,0.027786945924162865,0.03418825939297676
1790521820580214500,10.931214599609374,0.01916578784584999,0.022324688732624054,0.051795702427625656
1790521820590217500,10.941217529296875,0.021718161180615425,0.08075577020645142,0.03794034197926521
1790521820600220700,10.951220703125,0.03183681517839432,0.16005170345306396,0.004950720816850662
1790521820610223600,10.9612236328125,0.03787313401699066,0.2196500599384308,-0.0468008890748024
1790521820620226600,10.9712265625,0.03523465245962143,0.2298511415719986,-0.09856770932674408
1790521820630228500,10.981228515625,0.023820610716938972,0.21712149679660797,-0.1450158953666687
1790521820640231700,10.991231689453125,-0.016573047265410423,0.2328903079032898,-0.18365536630153656
1790521820650234600,11.001234619140625,-0.07765743881464005,0.2876363694667816,-0.20892556011676788
1790521820660237600,11.011237548828126,-0.1295502483844757,0.09927794337272644,-0.19435632228851318
1790521820670240800,11.02124072265625,-0.14992715418338776,-0.0456925630569458,-0.09637676179409027
1790521820680242400,11.031242431640624,-0.012164212763309479,0.2260751724243164,-0.14079436659812927
1790521820690245600,11.04124560546875,0.11511251330375671,0.09718377888202667,-0.18692192435264587
1790521820700248600,11.05124853515625,0.17003098130226135,0.152374267578125,-0.20404183864593506
1790521820710251500,11.06125146484375,0.22092211246490479,0.15551705658435822,-0.182378888130188
1790521820720254700,11.071254638671874,0.23387958109378815,-0.02351425029337406,-0.10567767173051834
1790521820730257400,11.08125732421875,0.1884590983390808,-0.12360169738531113,-0.05277690291404724
1790521820740259600,11.091259521484375,0.05420759692788124,-0.21738338470458984,0.0232634749263525
1790521820750262500,11.101262451171875,-0.0387047678232193,-0.10106663405895233,0.0816173329949379
1790521820760265500,11.111265380859376,-0.0657944306731224,-0.045182451605796814,0.117508664727211
1790521820770268700,11.1212685546875,-0.06821604073047638,-0.08022512495517731,0.15430502593517303
1790521820780271600,11.131271728515625,-0.07440461963415146,-0.09685372561216354,0.15857627987861633
1790521820790273800,11.141273681640625,-0.0949447825551033,-0.0862325057387352,0.1408582627773285
1790521820800276500,11.1512763671875,-0.12499958276748657,-0.10576126724481583,0.13071715831756592
1790521820810279700,11.16127978515625,-0.15133531391620636,-0.08540060371160507,0.11372272670269012
1790521820820282600,11.17128271484375,-0.12446478754281998,-0.07618384063243866,0.11220968514680862
1790521820830285600,11.18128564453125,-0.09152600914239883,-0.006071071140468121,0.08855202794075012
1790521820840287700,11.191287841796875,-0.05722091346979141,0.0773012712597847,0.0666331946849823
1790521820850290400,11.20129052734375,-0.01175463106483221,0.005289929918944836,0.03451893478631973
1790521820860293600,11.211293701171876,-0.012642795220017433,0.01217153761535883,-0.05149557441473007
1790521820870296600,11.221296630859374,-0.05829949676990509,0.045929498970508575,-0.14574751257896423
1790521820880299500,11.231299560546875,-0.11449966579675674,0.0275278277695179,-0.20635508000850677
1790521820890302700,11.241302734375,-0.07703032344579697,0.1336292326450348,-0.26934361457824707
1790521820900304600,11.2513046875,-0.002304835245013237,0.2158265858888626,-0.30646005272865295
1790521820910307600,11.2613076171875,0.03973342850804329,0.20388178527355194,-0.30388185381889343
1790521820920310500,11.271310546875,0.04278511926531792,0.1765410602092743,-0.2854198217391968
1790521820930313500,11.2813134765625,0.025554468855261803,0.1692543774843216,-0.2707902789115906
1790521820940316700,11.291316650390625,-0.0008969231857918203,0.14271330833435059,-0.2443678230047226
1790521820950318600,11.301318603515625,-0.024319423362612724,0.11199347674846649,-0.19468016922473907
1790521820960321800,11.31132177734375,-0.01592874340713024,0.09124743193387985,-0.15286114811897278
1790521820970324500,11.321324462890624,0.02114618755877018,0.0524747408926487,-0.12511128187179565
1790521820980327700,11.33132763671875,0.05705596134066582,-0.027414673939347267,-0.10913317650556564
1790521820990330600,11.34133056640625,0.09176281094551086,-0.10983311384916306,-0.10322149097919464
1790521821000332500,11.35133251953125,0.12253455817699432,-0.15380167961120605,-0.11226572841405869
1790521821010335700,11.361335693359376,0.15259498357772827,-0.16754038631916046,-0.13004739582538605
1790521821020338400,11.37133837890625,0.1869126260280609,-0.17896731197834015,-0.14937154948711395
1790521821030341600,11.381341552734375,0.23346282541751862,-0.21362942457199097,-0.17836351692676544
1790521821040344600,11.391344482421875,0.26306381821632385,-0.2831982672214508,-0.20394937694072723
1790521821050347500,11.401347412109375,0.272652268409729,-0.3148305118083954,-0.23923359811306
1790521821060349700,11.411349609375,0.26809370517730713,-0.2712617814540863,-0.27422913908958435
1790521821070352600,11.4213525390625,0.2554610073566437,-0.17517787218093872,-0.29918697476387024
1790521821080355600,11.43135546875,0.23138538002967834,-0.12900157272815704,-0.30713778734207153
1790521821090358500,11.441358642578125,0.22113220393657684,0.001239254605025053,-0.31533339619636536
1790521821100361500,11.451361572265625,0.22358381748199463,0.09447301179170609,-0.3073321580886841
1790521821110363400,11.46136328125,0.22925636172294617,0.08922498673200607,-0.28299805521965027
1790521821120366600,11.47136669921875,0.21066515147686005,0.05524289980530739,-0.2549189627170563
1790521821130369500,11.48136962890625,0.18483275175094604,0.026704732328653336,-0.23674583435058594
1790521821140372500,11.49137255859375,0.16765885055065155,-0.0011291240807622671,-0.24213440716266632
1790521821150375700,11.501375732421875,0.13607695698738098,-0.023603275418281555,-0.2745959460735321
1790521821160378600,11.511378662109376,0.11405256390571594,-0.025493549183011055,-0.3257540166378021
1790521821170380500,11.521380615234374,0.1261955052614212,0.013001112267374992,-0.3709681034088135
1790521821180383700,11.5313837890625,0.15496593713760376,0.03375396504998207,-0.41822370886802673
1790521821190386400,11.541386474609375,0.17864304780960083,0.033310018479824066,-0.4648934602737427
1790521821200389600,11.5513896484375,0.16786225140094757,0.050557248294353485,-0.5146074295043945
1790521821210392600,11.561392578125,0.11688029021024704,-0.002685201819986105,-0.5537199378013611
1790521821220394500,11.57139453125,0.029653923586010933,-0.1513085961341858,-0.5706855654716492
1790521821230397700,11.581397705078125,-0.06022190302610397,-0.2182263731956482,-0.5577303767204285
1790521821240400600,11.591400634765625,-0.10590066015720367,-0.1723642796278,-0.48355457186698914
1790521821250403600,11.601403564453125,-0.1037975624203682,-0.0805688351392746,-0.3518596589565277
1790521821260406500,11.611406494140626,-0.07170778512954712,0.014167821034789085,-0.20739179849624634
1790521821270408700,11.62140869140625,-0.023614028468728065,0.02856886386871338,-0.10787878930568695
1790521821280411400,11.631411376953125,0.012386315502226353,-0.02269858308136463,-0.04168832302093506
1790521821290414600,11.64141455078125,0.04801355302333832,-0.061881668865680695,0.005003281403332949
1790521821300417500,11.65141748046875,0.0821409672498703,-0.09473413974046707,0.04070412740111351
1790521821310420500,11.66142041015625,0.10704232007265091,-0.1395290344953537,0.07465597242116928
1790521821320423700,11.671423583984375,0.10586254298686981,-0.15144285559654236,0.10096085071563721
1790521821330425600,11.681425537109375,0.08578923344612122,-0.14023946225643158,0.11613687127828598
1790521821340428500,11.691428466796875,0.046557147055864334,-0.1397472620010376,0.1292126476764679
1790521821350431700,11.701431640625,0.0070345052517950535,-0.1843845099210739,0.1308976262807846
1790521821360434400,11.711434326171876,-0.03617210313677788,-0.2407701015472412,0.09023215621709824
1790521821370437600,11.721437744140625,-0.10919491201639175,-0.27713504433631897,0.01859179325401783
1790521821380439600,11.731439453125,-0.19173505902290344,-0.26518312096595764,-0.06302838772535324
1790521821390442500,11.7414423828125,-0.2320728898048401,-0.22279329597949982,-0.10594869405031204
1790521821400445700,11.75144580078125,-0.16670311987400055,-0.3062041699886322,0.12472540140151978
1790521821410448600,11.76144873046875,-0.10600382089614868,0.16254466772079468,0.17765679955482483
1790521821420451600,11.77145166015625,-0.09390026330947876,0.3785834312438965,0.05879750847816467
1790521821430454500,11.78145458984375,-0.08464151620864868,0.3515203893184662,-0.11757699400186539
1790521821440456400,11.79145654296875,-0.09182510524988174,0.3000669479370117,-0.2860010862350464
1790521821450459400,11.80145947265625,-0.09197211265563965,0.20313028991222382,-0.33694151043891907
1790521821460462300,11.81146240234375,-0.07576810568571091,0.2797706127166748,-0.27207309007644653
1790521821470465500,11.821465576171875,-0.10329107940196991,0.35024693608283997,-0.11027245968580246
1790521821480468500,11.831468505859375,-0.1773928552865982,0.36332985758781433,0.0702027752995491
1790521821490470400,11.841470458984375,-0.2511610686779022,0.3802643418312073,0.1939271241426468
1790521821500473600,11.8514736328125,-0.3159859776496887,0.39088311791419983,0.2461603581905365
1790521821510476300,11.861476318359376,-0.35208114981651306,0.37227773666381836,0.23761267960071564
1790521821520479500,11.8714794921875,-0.3715047240257263,0.30751386284828186,0.1960383504629135
1790521821530482400,11.881482421875,-0.37986811995506287,0.17885762453079224,0.17437432706356049
1790521821540485400,11.8914853515625,-0.3698016107082367,0.020917078480124474,0.18940724432468414
1790521821550487600,11.901487548828126,-0.3224037289619446,-0.07132523506879807,0.23715053498744965
1790521821560490500,11.911490478515624,-0.2515483498573303,-0.11145739257335663,0.30897051095962524
1790521821570493400,11.921493408203125,-0.19267332553863525,-0.12317822128534317,0.38394755125045776
1790521821580496400,11.931496337890625,-0.14461159706115723,-0.1113051101565361,0.4269813299179077
1790521821590499300,11.941499267578125,-0.13381008803844452,-0.08518136292695999,0.42186832427978516
1790521821600501200,11.951501220703125,-0.14572444558143616,-0.04889586940407753,0.37052756547927856
1790521821610504400,11.96150439453125,-0.13077105581760406,-0.007818739861249924,0.2944333255290985
1790521821620507400,11.97150732421875,-0.09793881326913834,0.03782038390636444,0.2168101668357849
1790521821630510300,11.98151025390625,-0.07212646305561066,0.05214470624923706,0.13114547729492188
1790521821640513500,11.991513427734375,-0.06536258012056351,0.07790543138980865,0.04566771537065506
1790521821650516500,12.0015166015625,-0.06867688149213791,0.12224386632442474,-0.03032212145626545
1790521821660518400,12.011518310546874,-0.08398638665676117,0.1761513501405716,-0.09139780700206757
1790521821670521600,12.021521484375,-0.0690990462899208,0.21278393268585205,-0.13256095349788666
1790521821680524300,12.031524169921875,-0.05817261338233948,0.19660232961177826,-0.14881913363933563
1790521821690527500,12.041527587890625,-0.02954469807446003,0.16039025783538818,-0.13473181426525116
1790521821700530400,12.051530517578126,0.0067350114695727825,0.14141789078712463,-0.09708191454410553
1790521821710532400,12.061532470703124,0.03584655746817589,0.12367139011621475,-0.04024500027298927
1790521821720535600,12.07153564453125,0.04761793464422226,0.11344672739505768,0.025744974613189697
1790521821730538500,12.08153857421875,0.021848654374480247,0.13777150213718414,0.07023840397596359
1790521821740541400,12.09154150390625,-0.03269880637526512,0.14631173014640808,0.08997539430856705
1790521821750544400,12.10154443359375,-0.08396359533071518,0.11314845830202103,0.1028139591217041
1790521821760547300,12.11154736328125,-0.09482008218765259,0.04224114865064621,0.11245539039373398
1790521821770549500,12.121549560546875,-0.08983305096626282,-0.04482051357626915,0.1445257067680359
1790521821780552400,12.131552490234375,-0.0731019377708435,-0.07820750772953033,0.18795277178287506
1790521821790555400,12.141555419921875,-0.05809209868311882,-0.13082225620746613,0.23211650550365448
1790521821800558300,12.151558349609376,-0.0662984773516655,-0.19262991845607758,0.2832273244857788
