time,seconds_elapsed,z,y,x
1790521809698447600,0.049447509765625,0.015690013766288757,0.21443666517734528,0.4108234941959381
1790521809708450600,0.059450439453125,0.0518549419939518,0.10362253338098526,0.42105987668037415
1790521809718452700,0.06945263671875,0.11396491527557373,0.037694383412599564,0.42818331718444824
1790521809728455700,0.07945556640625,0.14863528311252594,0.03925579413771629,0.41407841444015503
1790521809738458600,0.089458740234375,0.14160241186618805,0.06305140256881714,0.3832717537879944
1790521809748461800,0.0994619140625,0.11377556622028351,0.0824005976319313,0.34487298130989075
1790521809758463700,0.109463623046875,0.09566234052181244,0.11581448465585709,0.2905633747577667
1790521809768466700,0.119466796875,0.07198604196310043,0.15340739488601685,0.22845926880836487
1790521809778469600,0.1294697265625,0.05341848358511925,0.22419102489948273,0.17518140375614166
1790521809788472600,0.13947265625,0.07156473398208618,0.3456210494041443,0.13503983616828918
1790521809798474500,0.149474609375,0.07380232214927673,0.46107786893844604,0.11858204007148743
1790521809808477700,0.159477783203125,0.043419912457466125,0.4334696829319,0.1423448920249939
1790521809818480600,0.169480712890625,0.02845880575478077,0.3898308575153351,0.17844457924365997
1790521809828483600,0.179483642578125,0.043901145458221436,0.36384478211402893,0.20929943025112152
1790521809838485800,0.18948583984375,0.08375135809183121,0.34919047355651855,0.25060132145881653
1790521809848488400,0.199488525390625,0.13137319684028625,0.29843568801879883,0.29969272017478943
1790521809858491600,0.20949169921875,0.17337951064109802,0.19590559601783752,0.35547661781311035
1790521809868493600,0.21949365234375,0.16873522102832794,0.10961304605007172,0.3725637197494507
1790521809878496800,0.229496826171875,0.166301891207695,0.175958514213562,0.3756710886955261
1790521809888499700,0.239499755859375,0.1833149641752243,0.21136097609996796,0.3979513645172119
1790521809898502700,0.249502685546875,0.2360980212688446,0.14224795997142792,0.46387311816215515
1790521809908504800,0.2595048828125,0.30168235301971436,0.03308631479740143,0.5620758533477783
1790521809918507500,0.269507568359375,0.3236180245876312,-0.03756308928132057,0.6447598338127136
1790521809928510700,0.2795107421875,0.31914976239204407,-0.12808020412921906,0.6599962711334229
1790521809938513700,0.289513671875,0.32115060091018677,-0.2358817756175995,0.6166168451309204
1790521809948515600,0.299515625,0.32282066345214844,-0.22296783328056335,0.55448317527771
1790521809958518800,0.309518798828125,0.3033052980899811,-0.14014406502246857,0.516222357749939
1790521809968521500,0.319521484375,0.2789035439491272,-0.06516887992620468,0.49560070037841797
1790521809978524700,0.329524658203125,0.25191640853881836,-0.011740812100470066,0.5114507675170898
1790521809988526600,0.339526611328125,0.22947287559509277,0.02949690632522106,0.5467232465744019
1790521809998529800,0.34952978515625,0.18158631026744843,0.0015081481542438269,0.5211819410324097
1790521810008532700,0.35953271484375,0.16742734611034393,-0.07064354419708252,0.4337058961391449
1790521810018534700,0.36953466796875,0.0920066237449646,-0.08372978121042252,0.35672298073768616
1790521810028537900,0.379537841796875,0.00797270517796278,-0.024213194847106934,0.313514769077301
1790521810038540500,0.38954052734375,0.0014825817197561264,-0.006810501683503389,0.282766729593277
1790521810048543700,0.399543701171875,0.0232925396412611,-0.06938173621892929,0.26005634665489197
1790521810058545700,0.409545654296875,0.03948349505662918,-0.19940471649169922,0.20963099598884583
1790521810068548600,0.419548583984375,0.031216243281960487,-0.32740288972854614,0.10890944302082062
1790521810078551800,0.4295517578125,0.002657035831362009,-0.4096261262893677,-0.04543912038207054
1790521810088554500,0.439554443359375,-0.00839508231729269,-0.4437830448150635,-0.2653445899486542
1790521810098556700,0.449556640625,-0.031749941408634186,-0.37882986664772034,-0.4840284585952759
1790521810108559600,0.4595595703125,-0.03972051292657852,-0.29671263694763184,-0.6923419833183289
1790521810118562800,0.469562744140625,-0.039083752781152725,-0.3230547606945038,-0.8499593138694763
1790521810128565500,0.4795654296875,-0.0599948950111866,-0.3591930568218231,-0.9084745645523071
1790521810138567700,0.489567626953125,-0.058709919452667236,-0.40009281039237976,-0.8930460810661316
1790521810148571000,0.49957080078125,-0.07735257595777512,-0.2512490153312683,-0.8341765999794006
1790521810158573600,0.509573486328125,-0.05403740331530571,-0.12169181555509567,-0.778178334236145
1790521810168576800,0.51957666015625,-0.02263527177274227,-0.032773926854133606,-0.7894358038902283
1790521810178578700,0.52957861328125,-0.03328418731689453,-0.08845982700586319,-0.8446313738822937
1790521810188581600,0.53958154296875,0.026982082054018974,-0.12996065616607666,-0.7893779873847961
1790521810198584600,0.54958447265625,0.12709802389144897,-0.06548606604337692,-0.5853793025016785
1790521810208586800,0.559586669921875,0.17821714282035828,0.21793313324451447,-0.24783509969711304
1790521810218589700,0.569589599609375,0.2028479129076004,0.48233628273010254,0.1323833465576172
1790521810228592600,0.579592529296875,0.25069427490234375,0.79087895154953,0.491597443819046
1790521810238595800,0.589595947265625,0.29233279824256897,0.9488664269447327,0.74711012840271
1790521810248597500,0.599597412109375,0.451072096824646,0.5514146685600281,0.9743465185165405
1790521810258600700,0.6096005859375,0.5305197834968567,-0.07548889517784119,1.2713770866394043
1790521810268603600,0.619603759765625,0.24095375835895538,0.30972376465797424,1.2939168214797974
1790521810278606600,0.629606689453125,0.07726016640663147,0.17309774458408356,0.7869641184806824
1790521810288608500,0.6396083984375,-0.07920879870653152,-0.1361040472984314,0.30714768171310425
1790521810298611700,0.64961181640625,-0.1409834921360016,-0.0906987413764,0.005409146659076214
1790521810308614700,0.65961474609375,-0.11387543380260468,-0.1336214393377304,-0.24971503019332886
1790521810318617600,0.66961767578125,-0.16608084738254547,-0.24907080829143524,-0.475909024477005
1790521810328619800,0.679619873046875,-0.3379652500152588,-0.39373770356178284,-0.7764856219291687
1790521810338622500,0.68962255859375,-0.522056519985199,-0.7500643730163574,-1.2018193006515503
1790521810348625700,0.699625732421875,-0.7266994118690491,-1.1872936487197876,-1.5540117025375366
1790521810358628900,0.70962890625,-0.9264700412750244,-1.6019294261932373,-1.7882859706878662
1790521810368630500,0.719630615234375,-0.8405287861824036,-1.2899385690689087,-1.8689619302749634
1790521810378633700,0.7296337890625,-0.7521179914474487,-0.9939918518066406,-1.657524585723877
1790521810388636700,0.73963671875,-0.6318541169166565,-0.5188087821006775,-1.2856122255325317
1790521810398638800,0.749638916015625,-0.47140347957611084,-0.0012471582740545273,-0.8737927079200745
1790521810408641500,0.7596416015625,-0.301483154296875,0.33706778287887573,-0.47632527351379395
1790521810418644200,0.769644287109375,-0.13223527371883392,0.5940462946891785,-0.08543633669614792
1790521810428647200,0.779647216796875,0.04045634716749191,0.8259384036064148,0.2890866696834564
1790521810438649000,0.789649169921875,0.19447627663612366,1.0258005857467651,0.5905455946922302
1790521810448652300,0.79965234375,0.3026410937309265,1.1578220129013062,0.7773138880729675
1790521810458655200,0.8096552734375,0.37883999943733215,1.2419899702072144,0.8728457093238831
1790521810468658200,0.819658203125,0.4248538315296173,1.2869489192962646,0.9292064309120178
1790521810478660000,0.82966015625,0.4435825049877167,1.2658002376556396,0.9927098155021667
1790521810488663300,0.839663330078125,0.44405093789100647,1.2201871871948242,1.0600744485855103
1790521810498666200,0.849666259765625,0.4162083864212036,1.1879721879959106,1.1133360862731934
1790521810508669200,0.859669189453125,0.3372192978858948,1.0998623371124268,1.1374483108520508
1790521810518671400,0.86967138671875,0.22627760469913483,0.9180440902709961,1.1341817378997803
1790521810528674000,0.879674072265625,0.08628242462873459,0.6145853996276855,1.0885494947433472
1790521810538677200,0.88967724609375,-0.0314846895635128,0.2110041230916977,0.9717028141021729
1790521810548680200,0.89968017578125,-0.13755759596824646,-0.1476682871580124,0.807540237903595
1790521810558682000,0.90968212890625,-0.23385803401470184,-0.4417891204357147,0.6082393527030945
1790521810568685300,0.919685302734375,-0.31548047065734863,-0.6378675699234009,0.4088127911090851
1790521810578688300,0.929688232421875,-0.37919819355010986,-0.6975087523460388,0.2530604898929596
1790521810588690200,0.939690185546875,-0.41349464654922485,-0.650562047958374,0.14748266339302063
1790521810598693000,0.949693115234375,-0.4060678780078888,-0.5296444296836853,0.07458794862031937
1790521810608696300,0.9596962890625,-0.37865835428237915,-0.40745192766189575,0.025488315150141716
1790521810618699300,0.96969921875,-0.33747896552085876,-0.3690086603164673,-0.010673416778445244
1790521810628701200,0.979701171875,-0.27211061120033264,-0.3817654848098755,-0.03778998926281929
1790521810638704400,0.989704345703125,-0.1859983652830124,-0.42530202865600586,-0.07800851762294769
1790521810648707000,0.99970703125,-0.09122897684574127,-0.4047536253929138,-0.13729900121688843
1790521810658710300,1.009710205078125,-0.026521354913711548,-0.3438971936702728,-0.19260859489440918
1790521810668712200,1.019712158203125,-0.009372995235025883,-0.26872146129608154,-0.23140659928321838
1790521810678715100,1.029715087890625,-0.021377461031079292,-0.1806563287973404,-0.26707857847213745
1790521810688718300,1.03971826171875,-0.04204492270946503,-0.09882458299398422,-0.30233216285705566
1790521810698721300,1.04972119140625,-0.0399458184838295,-0.026871295645833015,-0.3507854640483856
1790521810708723200,1.05972314453125,0.001805623178370297,0.016412261873483658,-0.38897064328193665
1790521810718726100,1.06972607421875,0.05499347671866417,-0.006188920233398676,-0.37464258074760437
1790521810728729300,1.079729248046875,0.0697026476264,-0.029340045526623726,-0.29634085297584534
1790521810738732000,1.08973193359375,0.061406634747982025,-0.018335331231355667,-0.1590232104063034
1790521810748734200,1.099734130859375,0.07333919405937195,-0.047207992523908615,-0.015034076757729053
1790521810758737400,1.1097373046875,0.08488426357507706,-0.011626828461885452,0.09207399934530258
1790521810768740000,1.119739990234375,0.06690926104784012,0.052934855222702026,0.1450703740119934
1790521810778743300,1.129743408203125,0.07629343867301941,0.06862060725688934,0.13591335713863373
1790521810788745200,1.1397451171875,0.15078365802764893,0.01810603402554989,0.07676641643047333
1790521810798748200,1.149748046875,0.18842023611068726,-0.011949869804084301,0.023311180993914604
1790521810808751000,1.159751220703125,0.18408648669719696,0.034019485116004944,0.004621915984898806
1790521810818754300,1.16975439453125,0.15125156939029694,0.11867525428533554,0.025592977181077003
1790521810828756000,1.179755859375,0.13121527433395386,0.19241125881671906,0.040516532957553864
1790521810838759200,1.18975927734375,0.11400220543146133,0.18614856898784637,0.015185876749455929
1790521810848762400,1.199762451171875,0.08856528252363205,0.14049212634563446,-0.03701873868703842
1790521810858765000,1.20976513671875,0.05207119137048721,0.0527162067592144,-0.10290028154850006
1790521810868767200,1.219767333984375,0.02082671783864498,-0.010272877290844917,-0.1727059930562973
1790521810878770200,1.229770263671875,-0.0014740596525371075,0.003763046581298113,-0.22269432246685028
1790521810888773000,1.239773193359375,-0.028839638456702232,0.07542338222265244,-0.22389142215251923
1790521810898775000,1.249775146484375,-0.07129069417715073,0.13706304132938385,-0.1634640246629715
1790521810908778200,1.2597783203125,-0.09380185604095459,0.18154875934123993,-0.059365320950746536
1790521810918781200,1.26978125,-0.07123183459043503,0.14844246208667755,0.03441230207681656
1790521810928784100,1.2797841796875,-0.03497369587421417,0.07622046768665314,0.11684512346982956
1790521810938786300,1.289786376953125,0.00754899624735117,0.009545302018523216,0.17388683557510376
1790521810948789000,1.2997890625,0.038536738604307175,-0.020792629569768906,0.21383079886436462
1790521810958792200,1.309792236328125,0.04339727386832237,-0.037943121045827866,0.2252589464187622
1790521810968795400,1.31979541015625,0.030159765854477882,-0.02677222527563572,0.21254608035087585
1790521810978797300,1.32979736328125,0.001657018787227571,0.00042024682625196874,0.18445107340812683
1790521810988800300,1.33980029296875,-0.03452921658754349,0.0034669029992073774,0.13817118108272552
1790521810998803200,1.34980322265625,-0.0717327743768692,-0.02815840020775795,0.08381367474794388
1790521811008806100,1.35980615234375,-0.08329382538795471,-0.07949748635292053,0.03407701104879379
1790521811018808000,1.36980810546875,-0.07168324291706085,-0.10928068310022354,0.013577061705291271
1790521811028811300,1.379811279296875,-0.058338407427072525,-0.09318800270557404,0.02286004275083542
1790521811038814200,1.389814208984375,-0.04957208037376404,-0.047274570912122726,0.055990565568208694
1790521811048817200,1.399817138671875,-0.02883164770901203,-0.009941047988831997,0.1001492366194725
1790521811058819300,1.4098193359375,0.0033217607997357845,-0.010723218321800232,0.12565726041793823
1790521811068822300,1.419822265625,0.030219420790672302,-0.00030786142451688647,0.12348785251379013
1790521811078825200,1.4298251953125,0.030302245169878006,0.03329164534807205,0.10721806436777115
1790521811088828400,1.439828369140625,0.02593040093779564,0.03937190771102905,0.08850882947444916
1790521811098830300,1.449830322265625,0.021343370899558067,0.036728985607624054,0.0669526681303978
1790521811108833300,1.459833251953125,0.01943787932395935,0.0211244598031044,0.05997465178370476
1790521811118836200,1.469836181640625,0.021032847464084625,0.006402239203453064,0.06121355667710304
1790521811128839200,1.479839111328125,0.01221858337521553,-0.015742743387818336,0.0631970763206482
1790521811138841000,1.489841064453125,-0.0010849718237295747,-0.032645560801029205,0.04338209331035614
1790521811148844300,1.49984423828125,-0.010669422335922718,-0.039503201842308044,0.005854426883161068
1790521811158847000,1.509846923828125,-0.012353072874248028,-0.014434332959353924,-0.03274889290332794
1790521811168850200,1.51985009765625,-0.01643197052180767,-0.001898301183246076,-0.05818074941635132
1790521811178852400,1.529852294921875,-0.017782459035515785,-0.01847381517291069,-0.06689940392971039
1790521811188855300,1.539855224609375,-0.01781361736357212,-0.028928853571414948,-0.050694867968559265
1790521811198858200,1.549858154296875,-0.012288624420762062,-0.027824973687529564,-0.009486179798841476
1790521811208861200,1.559861083984375,-0.008832906372845173,-0.045109156519174576,0.026077140122652054
1790521811218863400,1.56986328125,-0.007780425250530243,-0.05812855064868927,0.04074237123131752
1790521811228866000,1.579865966796875,0.01161297969520092,-0.0595054030418396,0.03760436549782753
1790521811238869200,1.589869140625,0.04904184490442276,-0.022732475772500038,0.029143771156668663
1790521811248871400,1.599871337890625,0.07355144619941711,0.0190205629914999,0.0330415740609169
1790521811258874000,1.6098740234375,0.08437427133321762,0.03708531707525253,0.057370614260435104
1790521811268877300,1.619877197265625,0.08890457451343536,0.029515014961361885,0.08637376874685287
1790521811278880000,1.6298798828125,0.09002362936735153,-0.008959139697253704,0.09217200428247452
1790521811288882200,1.639882080078125,0.09434514492750168,-0.04970870167016983,0.05500119924545288
1790521811298885000,1.649885009765625,0.09400399029254913,-0.043228697031736374,-0.01503807120025158
1790521811308888300,1.659888427734375,0.0643230602145195,0.027097398415207863,-0.08592981845140457
1790521811318891300,1.669891357421875,0.007994809187948704,0.07941360026597977,-0.1307918280363083
1790521811328893200,1.67989306640625,-0.045827142894268036,0.07654830068349838,-0.1415315717458725
1790521811338896400,1.689896484375,-0.07566013932228088,0.0073079802095890045,-0.10673363506793976
1790521811348899000,1.699899169921875,-0.06381253153085709,-0.05666274577379227,-0.05187518149614334
1790521811358902300,1.70990234375,-0.04303615167737007,-0.07181799411773682,0.01248995866626501
1790521811368904200,1.719904296875,-0.037217941135168076,-0.04643674194812775,0.07351309806108475
1790521811378907100,1.7299072265625,-0.03468075022101402,-0.02281157299876213,0.11179044842720032
1790521811388910300,1.739910400390625,-0.029319806024432182,-0.004189951345324516,0.116373211145401
1790521811398913000,1.7499130859375,-0.031212247908115387,0.03798013925552368,0.09959929436445236
1790521811408915200,1.759915283203125,-0.024282170459628105,0.07392269372940063,0.07589689642190933
1790521811418918400,1.76991845703125,-0.011927499435842037,0.10354822874069214,0.05474580451846123
1790521811428921300,1.77992138671875,0.005468801129609346,0.11369886994361877,0.045166414231061935
1790521811438924300,1.78992431640625,0.01848127320408821,0.09253685921430588,0.04892972484230995
1790521811448926500,1.799926513671875,0.022230470553040504,0.062018364667892456,0.05729497969150543
1790521811458929400,1.809929443359375,0.015921441838145256,0.03744644299149513,0.05042775347828865
1790521811468932400,1.819932373046875,0.01002200786024332,0.015497466549277306,0.009466205723583698
1790521811478935600,1.829935546875,0.0054123420268297195,-0.006669620517641306,-0.047560594975948334
1790521811488937500,1.8399375,0.00694925244897604,-0.03766615316271782,-0.08778578042984009
1790521811498940400,1.8499404296875,0.013637514784932137,-0.03767414018511772,-0.10190452635288239
1790521811508943400,1.859943359375,0.013117666356265545,-0.02316470816731453,-0.08131669461727142
1790521811518946300,1.8699462890625,0.008761799894273281,-0.0136023610830307,-0.04548279568552971
1790521811528948200,1.8799482421875,-0.0073447320610284805,-0.009612147696316242,-0.006390787661075592
1790521811538951400,1.889951416015625,-0.012690761126577854,-0.018392056226730347,0.012146677821874619
1790521811548954400,1.899954345703125,-0.022665364667773247,-0.01942775957286358,0.012472914531826973
1790521811558957300,1.909957275390625,-0.04411819204688072,-0.011173025704920292,0.005668005906045437
1790521811568959500,1.91995947265625,-0.06258641928434372,-0.009097624570131302,-0.00038988678716123104
1790521811578962400,1.92996240234375,-0.07348300516605377,-0.00974317453801632,-0.0016205335268750787
1790521811588965400,1.93996533203125,-0.07071810960769653,-0.013227920979261398,0.002603239845484495
1790521811598968600,1.949968505859375,-0.06756998598575592,0.007381749805063009,0.012094213627278805
1790521811608970500,1.959970458984375,-0.06501282006502151,0.030522489920258522,0.023015569895505905
1790521811618973400,1.969973388671875,-0.06341412663459778,0.06100636348128319,0.03519553691148758
1790521811628976400,1.979976318359375,-0.062433551996946335,0.09759127348661423,0.045894522219896317
1790521811638979300,1.989979248046875,-0.06205138564109802,0.1278325319290161,0.057203102856874466
1790521811648981200,1.999981201171875,-0.05913549289107323,0.14506158232688904,0.06508126854896545
1790521811658984400,2.009984375,-0.04381858557462692,0.13054336607456207,0.051776379346847534
1790521811668987400,2.0199873046875,-0.030768832191824913,0.091688372194767,0.017978733405470848
1790521811678990300,2.029990234375,-0.026880882680416107,0.04278767853975296,-0.030001841485500336
1790521811688992500,2.039992431640625,-0.027353860437870026,0.004689826630055904,-0.07276208698749542
1790521811698995500,2.049995361328125,-0.026031600311398506,-0.016530506312847137,-0.11088444292545319
1790521811708998400,2.059998291015625,-0.01943548396229744,-0.00267807487398386,-0.12257358431816101
1790521811719001600,2.070001708984375,-0.0068086376413702965,0.018204303458333015,-0.0931488499045372
1790521811729003500,2.08000341796875,0.01890258491039276,0.03281174227595329,-0.03930559381842613
1790521811739006500,2.09000634765625,0.039078161120414734,0.033486586064100266,0.02875601500272751
1790521811749009400,2.100009521484375,0.041614022105932236,0.02515195868909359,0.09145375341176987
1790521811759012400,2.110012451171875,0.03212757781147957,0.002192846732214093,0.13777731359004974
1790521811769014300,2.12001416015625,0.018386730924248695,-0.008711998350918293,0.14841477572917938
1790521811779017500,2.130017578125,0.00021997711155563593,-0.01847887597978115,0.12239222228527069
1790521811789020400,2.1400205078125,-0.01529000699520111,-0.018038654699921608,0.0653608962893486
1790521811799023400,2.1500234375,-0.03238510340452194,-0.005262140184640884,0.01022760383784771
1790521811809025500,2.160025634765625,-0.04012398421764374,0.01949780061841011,-0.02052365057170391
1790521811819028500,2.170028564453125,-0.04043078050017357,0.027580229565501213,-0.01446788851171732
1790521811829031400,2.180031494140625,-0.028844431042671204,0.020620323717594147,0.009837716817855835
1790521811839033300,2.190033447265625,-0.015053518116474152,0.02070527896285057,0.036552418023347855
1790521811849036500,2.20003662109375,-0.004437625408172607,0.03218456730246544,0.05758393555879593
1790521811859039200,2.210039306640625,0.011122159659862518,0.05826623737812042,0.06740008294582367
1790521811869042400,2.22004248046875,0.02743295580148697,0.08618521690368652,0.06727704405784607
1790521811879044600,2.230044677734375,0.029139243066310883,0.09088356792926788,0.055034488439559937
1790521811889047300,2.24004736328125,0.029522737488150597,0.07031943649053574,0.03675588220357895
1790521811899050500,2.250050537109375,0.032276447862386703,0.03785816580057144,0.018326010555028915
1790521811909053400,2.260053466796875,0.03509513661265373,0.013762949965894222,0.0015651397407054901
1790521811919055400,2.270055419921875,0.03948775306344032,-0.007869108580052853,-0.003117496380582452
1790521811929058300,2.280058349609375,0.03807521238923073,-0.007772701792418957,0.004492486361414194
1790521811939061500,2.2900615234375,0.042818568646907806,0.004482898861169815,0.0275631844997406
1790521811949064400,2.300064453125,0.05411756411194801,0.018222413957118988,0.054667770862579346
1790521811959066400,2.31006640625,0.05979622155427933,0.04298128932714462,0.08901535719633102
1790521811969069600,2.320069580078125,0.0612950474023819,0.05251487344503403,0.12365563213825226
1790521811979072300,2.330072265625,0.06782538443803787,0.04562713950872421,0.1560007780790329
1790521811989075500,2.340075439453125,0.07449580729007721,0.03654176741838455,0.17355448007583618
1790521811999077400,2.350077392578125,0.07597839087247849,0.03693990781903267,0.18060359358787537
1790521812009080300,2.360080322265625,0.0727785974740982,0.031248999759554863,0.17906935513019562
1790521812019083500,2.37008349609375,0.06567248702049255,0.03231559693813324,0.17264500260353088
1790521812029086500,2.38008642578125,0.04489743337035179,0.03459366410970688,0.1614016741514206
1790521812039088400,2.39008837890625,0.03483707457780838,0.04350965842604637,0.15476934611797333
1790521812049091300,2.40009130859375,0.0315115861594677,0.05668138712644577,0.15612462162971497
1790521812059094500,2.410094482421875,0.02508511394262314,0.05702946335077286,0.14058534801006317
1790521812069097500,2.420097412109375,0.015593340620398521,0.07163050770759583,0.11451592296361923
1790521812079099400,2.430099365234375,0.0023257385473698378,0.09914735704660416,0.08427520096302032
1790521812089102600,2.4401025390625,-0.01489159744232893,0.1628917157649994,0.05483155697584152
1790521812099105300,2.450105224609375,-0.020923657342791557,0.21010050177574158,0.026384202763438225
1790521812109108500,2.4601083984375,-0.01846342906355858,0.24816133081912994,0.013442572206258774
1790521812119110400,2.4701103515625,0.002406698651611805,0.15231870114803314,-0.013480122201144695
1790521812129113300,2.48011328125,0.036966271698474884,0.039451003074645996,-0.06814789772033691
1790521812139116500,2.490116455078125,0.04807804524898529,0.016989901661872864,-0.14071664214134216
1790521812149119500,2.500119384765625,0.023573502898216248,0.0002966761530842632,-0.2271476686000824
1790521812159121400,2.510121337890625,-0.009946906939148903,-0.0337664857506752,-0.3204595148563385
1790521812169124400,2.520124267578125,-0.04784182459115982,-0.029741117730736732,-0.4128027558326721
1790521812179127600,2.53012744140625,-0.07089734077453613,0.022727150470018387,-0.47187671065330505
1790521812189130200,2.540130126953125,-0.0587911456823349,0.04601702466607094,-0.49608245491981506
1790521812199132400,2.55013232421875,-0.05518575757741928,0.02954351156949997,-0.4832358956336975
1790521812209135600,2.560135498046875,-0.038787875324487686,-0.02853044494986534,-0.4527459144592285
1790521812219138300,2.57013818359375,-0.02442145347595215,-0.08159738779067993,-0.40425559878349304
1790521812229141500,2.5801416015625,-0.018617892637848854,-0.09132485091686249,-0.33433961868286133
1790521812239143400,2.590143310546875,-0.025501364842057228,-0.08008284866809845,-0.23616592586040497
1790521812249146400,2.600146484375,-0.02696130983531475,-0.0726502314209938,-0.1253856122493744
1790521812259149300,2.6101494140625,-0.02774055115878582,-0.07384706288576126,-0.013065468519926071
1790521812269151500,2.6201513671875,-0.025551432743668556,-0.07801543921232224,0.08067380636930466
1790521812279154200,2.630154296875,-0.022241655737161636,-0.08860523253679276,0.131184384226799
1790521812289157400,2.640157470703125,-0.014483601786196232,-0.09003668278455734,0.13363422453403473
1790521812299160600,2.65016064453125,-0.004965197294950485,-0.07728573679924011,0.11482538282871246
1790521812309162500,2.66016259765625,0.009910155087709427,-0.08798018842935562,0.11896873265504837
1790521812319165400,2.67016552734375,0.017461014911532402,-0.11856579780578613,0.13786838948726654
1790521812329168400,2.68016845703125,0.015957660973072052,-0.1350070834159851,0.15522660315036774
1790521812339171300,2.69017138671875,0.013502492569386959,-0.12119140475988388,0.15110456943511963
1790521812349173200,2.70017333984375,0.006355101242661476,-0.09389107674360275,0.10454851388931274
1790521812359176400,2.710176513671875,0.000609863898716867,-0.07466225326061249,0.04009655490517616
1790521812369179400,2.720179443359375,-0.006421946454793215,-0.08784649521112442,-0.0023790018167346716
1790521812379182300,2.730182373046875,-0.01209714263677597,-0.11824382096529007,-0.009581521153450012
1790521812389184500,2.7401845703125,-0.009416671469807625,-0.17999719083309174,0.015229819342494011
1790521812399187200,2.750187255859375,-0.035350799560546875,-0.1175101175904274,0.09354672580957413
1790521812409190400,2.7601904296875,-0.0294356532394886,-0.1001628190279007,0.1830635666847229
1790521812419193600,2.770193603515625,0.0007057376787997782,-0.12851668894290924,0.2760792672634125
1790521812429195500,2.780195556640625,0.04105555638670921,-0.16608405113220215,0.3755051791667938
1790521812439198500,2.790198486328125,0.09779180586338043,-0.18712913990020752,0.4766557514667511
1790521812449201700,2.80020166015625,0.19086609780788422,-0.22333428263664246,0.5748733878135681
1790521812459204600,2.81020458984375,0.33859696984291077,-0.35626089572906494,0.6118769645690918
1790521812469206500,2.82020654296875,0.42803657054901123,-0.013777597807347775,0.42187240719795227
1790521812479209700,2.830209716796875,0.4335050880908966,0.3897634744644165,-0.0020306603983044624
1790521812489212400,2.84021240234375,0.3930167853832245,0.004584631882607937,-0.297971248626709
1790521812499215600,2.850215576171875,0.3468836545944214,-0.2537611722946167,-0.46584412455558777
1790521812509217500,2.860217529296875,0.35502147674560547,-0.34015092253685,-0.5648971796035767
1790521812519220500,2.870220458984375,0.3582060933113098,-0.2166508138179779,-0.5933168530464172
1790521812529223700,2.8802236328125,0.3536826968193054,0.06698223203420639,-0.5360226631164551
1790521812539226600,2.8902265625,0.3576851785182953,0.2982495427131653,-0.4187120497226715
1790521812549228500,2.900228515625,0.34805411100387573,0.42667141556739807,-0.2874906361103058
1790521812559231500,2.9102314453125,0.30511462688446045,0.5027270317077637,-0.18594856560230255
1790521812569234700,2.920234619140625,0.24444755911827087,0.5293943285942078,-0.1234540268778801
1790521812579237600,2.930237548828125,0.18725138902664185,0.5794194340705872,-0.08293270319700241
1790521812589239600,2.940239501953125,0.1014975979924202,0.5592302680015564,-0.05788647010922432
1790521812599242800,2.95024267578125,-0.01678004488348961,0.45639604330062866,-0.04122413694858551
1790521812609245400,2.960245361328125,-0.141250342130661,0.24432425200939178,-0.039632897824048996
1790521812619248600,2.97024853515625,-0.27824652194976807,-0.04878192022442818,-0.05513249337673187
1790521812629250600,2.98025048828125,-0.29518502950668335,0.008621984161436558,-0.08343496918678284
1790521812639253500,2.99025341796875,-0.17220371961593628,0.14221680164337158,-0.10720634460449219
1790521812649256400,3.00025634765625,-0.12322579324245453,-0.036132968962192535,-0.10025230050086975
1790521812659259600,3.010259765625,-0.18505427241325378,-0.2500079870223999,-0.0892220214009285
1790521812669262600,3.0202626953125,-0.22736871242523193,-0.2626707851886749,-0.09127558767795563
1790521812679264500,3.030264404296875,-0.2325381636619568,-0.23495419323444366,-0.07944635301828384
1790521812689267700,3.040267822265625,-0.20710578560829163,-0.25779959559440613,-0.06089024990797043
1790521812699270400,3.0502705078125,-0.18110480904579163,-0.34123510122299194,-0.04194558411836624
1790521812709273600,3.060273681640625,-0.15543513000011444,-0.3914700150489807,-0.020966533571481705
1790521812719275500,3.070275634765625,-0.06561203300952911,-0.300995796918869,0.14130039513111115
1790521812729278500,3.080278564453125,0.11543844640254974,-0.25560566782951355,0.5429874062538147
1790521812739281700,3.09028173828125,0.2121191769838333,-0.27810990810394287,0.7981573343276978
1790521812749284600,3.10028466796875,0.20080633461475372,-0.270477831363678,0.8875349164009094
1790521812759286500,3.11028662109375,0.09228545427322388,-0.11892025917768478,0.7823123335838318
1790521812769289500,3.12028955078125,-0.04791346192359924,0.0771602988243103,0.5460633635520935
1790521812779292700,3.130292724609375,-0.11738095432519913,0.20761071145534515,0.2988967001438141
1790521812789295600,3.140295654296875,-0.17585651576519012,0.23310835659503937,0.10154127329587936
1790521812799297500,3.150297607421875,-0.2442222535610199,0.2177714705467224,-0.06891807913780212
1790521812809300700,3.16030078125,-0.12929300963878632,0.3575054109096527,-0.22159044444561005
1790521812819303400,3.170303466796875,0.024356205016374588,0.5541270971298218,-0.2825653851032257
1790521812829306600,3.180306640625,-0.011601528152823448,0.5801385045051575,-0.29018574953079224
1790521812839308500,3.19030859375,-0.16313938796520233,0.5019957423210144,-0.2967453896999359
1790521812849311500,3.2003115234375,-0.27229276299476624,0.4509147107601166,-0.2757769823074341
1790521812859314700,3.210314697265625,-0.32747986912727356,0.39864033460617065,-0.16501079499721527
1790521812869317600,3.220317626953125,-0.2479565441608429,0.3871825933456421,0.00782623142004013
1790521812879319600,3.230319580078125,-0.07410192489624023,0.29785165190696716,0.167628675699234
1790521812889322500,3.240322509765625,0.027837224304676056,0.05373220518231392,0.26708441972732544
1790521812899325700,3.25032568359375,0.051296744495630264,-0.20498190820217133,0.2844809889793396
1790521812909328600,3.26032861328125,-0.00119575927965343,-0.2505810856819153,0.2441524863243103
1790521812919330600,3.27033056640625,-0.05308372527360916,-0.19007407128810883,0.18507078289985657
1790521812929333800,3.280333740234375,-0.03153342381119728,-0.12413819134235382,0.14078481495380402
1790521812939336400,3.29033642578125,0.04020414501428604,-0.10034071654081345,0.09671216458082199
1790521812949339600,3.300339599609375,0.09696516394615173,-0.12744849920272827,0.0361713208258152
1790521812959342600,3.310342529296875,0.11536148190498352,-0.20370066165924072,-0.03741927817463875
1790521812969344500,3.320344482421875,0.10870091617107391,-0.2712799608707428,-0.10254687815904617
1790521812979347500,3.330347412109375,0.09352968633174896,-0.29902932047843933,-0.13642442226409912
1790521812989350700,3.3403505859375,0.08265173435211182,-0.26095861196517944,-0.15279540419578552
1790521812999353600,3.350353515625,0.06052113324403763,-0.1429811269044876,-0.15544232726097107
1790521813009355500,3.36035546875,0.01961790956556797,-0.030760841444134712,-0.13998213410377502
1790521813019358700,3.370358642578125,0.007667240686714649,0.02454768680036068,-0.10666333138942719
1790521813029361400,3.380361328125,0.004562261048704386,0.0163014754652977,-0.06746399402618408
1790521813039364600,3.390364501953125,-0.0022453111596405506,-0.007752994541078806,-0.020722588524222374
1790521813049366500,3.400366455078125,0.010093380697071552,-0.018454907462000847,0.02431386150419712
1790521813059369500,3.410369384765625,0.00740119069814682,-0.005393167492002249,0.04484124109148979
1790521813069372700,3.42037255859375,-0.016461264342069626,-0.005514874123036861,0.05384751781821251
1790521813079375600,3.430375732421875,-0.027526965364813805,0.013272661715745926,0.05890858918428421
1790521813089377500,3.44037744140625,-0.023575101047754288,0.030822893604636192,0.06898093223571777
1790521813099380500,3.45038037109375,-0.028268123045563698,0.05216813087463379,0.09549296647310257
1790521813109383700,3.4603837890625,-0.02906866930425167,0.049318280071020126,0.11857964098453522
1790521813119386600,3.47038671875,-0.030671892687678337,0.03791409358382225,0.11178991198539734
1790521813129388500,3.480388427734375,-0.027154656127095222,0.030589068308472633,0.0691058337688446
1790521813139391700,3.490391845703125,-0.01483220886439085,0.043476901948451996,0.015588813461363316
1790521813149394400,3.50039453125,-0.018752116709947586,0.06407139450311661,-0.01738990843296051
1790521813159397600,3.510397705078125,-0.024209199473261833,0.07592485845088959,-0.027968784794211388
1790521813169399600,3.520399658203125,-0.013647901825606823,0.10488886386156082,-0.025102956220507622
1790521813179402500,3.530402587890625,-0.008535165339708328,0.12625513970851898,-0.005438441410660744
1790521813189405700,3.54040576171875,-0.00920068845152855,0.12818646430969238,0.025184981524944305
1790521813199408600,3.55040869140625,-0.0031672974582761526,0.11968565732240677,0.06773483753204346
1790521813209411600,3.56041162109375,0.004729773849248886,0.08047407120466232,0.10473014414310455
1790521813219413500,3.57041357421875,0.007221161387860775,0.041359689086675644,0.11848589777946472
1790521813229416700,3.580416748046875,0.009244098328053951,0.00660384027287364,0.09777289628982544
1790521813239419600,3.590419677734375,0.013014867901802063,-0.0010596717474982142,0.05308878421783447
1790521813249422600,3.600422607421875,0.021867748349905014,0.024634506553411484,0.012425243854522705
1790521813259424800,3.6104248046875,0.019602196291089058,0.059250008314847946,-0.001845038030296564
1790521813269427500,3.620427490234375,0.010272078216075897,0.10041289031505585,0.006167348474264145
1790521813279430700,3.6304306640625,0.00040666470886208117,0.14780943095684052,0.01438293419778347
1790521813289433600,3.64043359375,-0.0015073491958901286,0.1690066009759903,0.02166960947215557
1790521813299435500,3.650435546875,-0.009988185949623585,0.13497087359428406,0.02081899531185627
1790521813309438500,3.6604384765625,-0.040527187287807465,0.21518979966640472,0.21820610761642456
1790521813319441700,3.670441650390625,-0.005063201766461134,0.14902622997760773,0.29824209213256836
1790521813329444600,3.680444580078125,0.007227020338177681,0.04248940199613571,0.182536780834198
1790521813339446500,3.690446533203125,-0.03356781229376793,-0.10022034496068954,-0.06812366098165512
1790521813349449700,3.70044970703125,-0.07374080270528793,-0.21948708593845367,-0.27723586559295654
1790521813359452400,3.710452392578125,-0.05842309445142746,-0.24392184615135193,-0.3369639217853546
1790521813369455600,3.72045556640625,-0.03333904966711998,-0.18660689890384674,-0.2601034939289093
1790521813379458600,3.73045849609375,-0.01787886582314968,-0.15614619851112366,-0.11334333568811417
1790521813389460500,3.74046044921875,0.007501858286559582,-0.16287334263324738,0.02033509872853756
1790521813399463700,3.750463623046875,0.04218100756406784,-0.18090346455574036,0.07737042009830475
1790521813409466600,3.760466552734375,0.05470399186015129,-0.142058864235878,0.052380383014678955
1790521813419469300,3.77046923828125,0.040405213832855225,-0.07323639839887619,-0.013965616934001446
1790521813429471200,3.78047119140625,0.024812938645482063,-0.061952050775289536,-0.07083422690629959
1790521813439474400,3.790474365234375,0.03549620881676674,-0.09737688302993774,-0.09481732547283173
1790521813449477000,3.80047705078125,0.06245139241218567,-0.12802188098430634,-0.09231528639793396
1790521813459480300,3.810480224609375,0.09140901267528534,-0.12283004820346832,-0.07723060250282288
1790521813469482200,3.820482177734375,0.10493546724319458,-0.12404818087816238,-0.06208494305610657
1790521813479485200,3.830485107421875,0.1006493791937828,-0.13168905675411224,-0.07273119688034058
1790521813489488400,3.84048828125,0.09065240621566772,-0.08672796934843063,-0.08666937798261642
1790521813499491300,3.8504912109375,0.07121612131595612,-0.21371574699878693,-0.11618839204311371
1790521813509494300,3.860494384765625,0.04303694888949394,-0.3398585021495819,-0.16935308277606964
1790521813519496200,3.87049609375,0.023513315245509148,-0.12936171889305115,-0.18988871574401855
1790521813529499400,3.88049951171875,0.028246818110346794,-0.08637803047895432,-0.17183540761470795
1790521813539502300,3.89050244140625,0.02586435340344906,-0.1343676596879959,-0.11717748641967773
1790521813549505300,3.90050537109375,0.004492752719670534,-0.12422767281532288,-0.04061374068260193
1790521813559507500,3.910507568359375,-0.018307633697986603,-0.11366318166255951,0.02961062267422676
1790521813569510100,3.92051025390625,-0.04176875203847885,-0.08950964361429214,0.08622489869594574
1790521813579513300,3.930513427734375,-0.059775713831186295,-0.1545264571905136,0.10714482516050339
1790521813589516300,3.940516357421875,-0.05035904422402382,-0.2103327363729477,0.09276722371578217
1790521813599518200,3.950518310546875,-0.007081611547619104,-0.22984464466571808,0.0787038654088974
1790521813609521400,3.960521484375,0.03271959722042084,-0.2943514585494995,0.09056292474269867
1790521813619524400,3.9705244140625,0.03907123580574989,-0.3415229618549347,0.11976714432239532
1790521813629527300,3.98052734375,0.02648407220840454,-0.3272974491119385,0.16456125676631927
1790521813639529200,3.990529296875,0.01176371518522501,-0.31375178694725037,0.22180430591106415
1790521813649532400,4.000532470703125,0.004991296678781509,-0.3310128152370453,0.27062004804611206
1790521813659535400,4.010535400390625,0.0059987702406942844,-0.3097173869609833,0.28799504041671753
1790521813669538300,4.020538330078125,0.020375579595565796,-0.31613293290138245,0.2789389491081238
1790521813679541200,4.030541259765625,0.04350753128528595,-0.37493979930877686,0.27815571427345276
1790521813689543200,4.040543212890625,0.06552388519048691,-0.4547795057296753,0.3121211528778076
1790521813699546400,4.05054638671875,0.0726102888584137,-0.5295149683952332,0.38205575942993164
1790521813709549300,4.06054931640625,0.0663880780339241,-0.5160689353942871,0.4408162832260132
1790521813719552300,4.07055224609375,0.06403011828660965,-0.4225251376628876,0.48663410544395447
1790521813729554200,4.08055419921875,0.05926971510052681,-0.3232417106628418,0.49338069558143616
1790521813739557400,4.090557373046875,0.03662805259227753,-0.2032061070203781,0.4578559696674347
1790521813749560300,4.100560302734375,0.0033481260761618614,-0.10626625269651413,0.38276174664497375
1790521813759563300,4.110563232421875,-0.03259922191500664,-0.057380203157663345,0.28695186972618103
1790521813769565400,4.1205654296875,-0.06036560609936714,-0.00929283443838358,0.19541023671627045
1790521813779568000,4.130568115234375,-0.06761499494314194,-0.244158074259758,0.042980488389730453
1790521813789571300,4.1405712890625,-0.09676249325275421,-0.08512474596500397,-0.20193472504615784
1790521813799574300,4.15057421875,-0.08391647040843964,0.21877548098564148,-0.4018632769584656
1790521813809577200,4.1605771484375,-0.06343197077512741,0.23176585137844086,-0.4997618794441223
1790521813819579400,4.170579345703125,-0.06384742259979248,0.1967380940914154,-0.4631301164627075
1790521813829582300,4.180582275390625,-0.04995610937476158,0.18838270008563995,-0.37409502267837524
1790521813839585300,4.190585205078125,-0.001119060325436294,0.20887652039527893,-0.3045881390571594
1790521813849588500,4.20058837890625,0.02899916097521782,0.30613914132118225,-0.23330914974212646
1790521813859590400,4.21059033203125,0.0403122678399086,0.3755704164505005,-0.12607671320438385
1790521813869593300,4.22059326171875,0.039441682398319244,0.321139931678772,0.009228119626641273
1790521813879596300,4.23059619140625,0.041784465312957764,0.25284770131111145,0.13637009263038635
1790521813889599200,4.24059912109375,0.03500725328922272,0.2050658017396927,0.22041013836860657
1790521813899602200,4.250602294921875,0.009752496145665646,0.16578710079193115,0.2370479702949524
1790521813909604400,4.260604248046875,-0.02081260457634926,0.13929450511932373,0.1825610250234604
1790521813919607300,4.270607177734375,-0.04168006777763367,0.1221645250916481,0.07292507588863373
1790521813929610200,4.2806103515625,-0.04598134011030197,0.10617224127054214,-0.044014330953359604
1790521813939613400,4.290613525390625,-0.03537450358271599,0.0751727819442749,-0.1366225630044937
1790521813949615400,4.300615478515625,-0.017005881294608116,0.018547585234045982,-0.20170968770980835
1790521813959618300,4.310618408203125,0.003175287041813135,-0.010240387171506882,-0.22432897984981537
1790521813969621200,4.320621337890625,0.010294981300830841,-0.003944940399378538,-0.20754839479923248
1790521813979624200,4.330624267578125,0.01056129764765501,0.0010556770721450448,-0.15065687894821167
1790521813989626400,4.34062646484375,0.007952997460961342,-0.06502746790647507,-0.06470682471990585
1790521813999629300,4.35062939453125,0.0006463492172770202,-0.1328834742307663,0.035054922103881836
1790521814009632300,4.36063232421875,-0.01561411377042532,-0.2234669178724289,0.13075828552246094
1790521814019635200,4.37063525390625,-0.031016772612929344,-0.2802548110485077,0.22740386426448822
1790521814029638400,4.380638427734375,-0.045762427151203156,-0.39776867628097534,0.3269283175468445
1790521814039640000,4.39064013671875,-0.05859513580799103,-0.557158350944519,0.4006326496601105
1790521814049643300,4.400643310546875,-0.08552955090999603,-0.5932071208953857,0.4158374071121216
1790521814059646500,4.410646484375,-0.09298533201217651,-0.4628176987171173,0.3880835473537445
1790521814069649200,4.420649169921875,-0.06787385791540146,-0.3052419424057007,0.3409469425678253
1790521814079651300,4.4306513671875,-0.043485693633556366,-0.1807391494512558,0.2750867009162903
1790521814089654300,4.440654296875,-0.036681048572063446,-0.07437889277935028,0.19369542598724365
1790521814099657200,4.4506572265625,-0.04594884812831879,0.009502424858510494,0.10897761583328247
1790521814109660400,4.460660400390625,-0.03754178434610367,0.08823798596858978,0.028903553262352943
1790521814119663400,4.470663330078125,-0.021821409463882446,0.1619870364665985,-0.050759050995111465
1790521814129665300,4.480665283203125,-0.01570838876068592,0.2155725061893463,-0.14366714656352997
1790521814139668200,4.490668212890625,-0.012449745088815689,0.27211540937423706,-0.25574150681495667
1790521814149671400,4.50067138671875,-0.017406687140464783,0.3311997652053833,-0.3542446196079254
1790521814159674400,4.51067431640625,-0.03453986719250679,0.3704257309436798,-0.3985860049724579
1790521814169676300,4.52067626953125,-0.03811143338680267,0.41604194045066833,-0.3965553343296051
1790521814179679500,4.530679443359375,-0.023575900122523308,0.45259010791778564,-0.3480389416217804
1790521814189682200,4.54068212890625,0.01477361936122179,0.4188731610774994,-0.2678293287754059
1790521814199685400,4.550685302734375,0.041913095861673355,0.35802552103996277,-0.18470273911952972
1790521814209688000,4.56068798828125,0.03602484613656998,0.32427313923835754,-0.10993955284357071
1790521814219690200,4.570690185546875,0.009591907262802124,0.293268084526062,-0.03870025649666786
1790521814229693200,4.580693115234375,-0.009937585331499577,0.22350765764713287,0.0019347865600138903
1790521814239696400,4.5906962890625,-0.03406769037246704,0.26559919118881226,0.027895547449588776
1790521814249699300,4.60069921875,-0.055093877017498016,0.264760822057724,0.03621499612927437
1790521814259701200,4.610701171875,-0.07073968648910522,0.22853676974773407,0.031870581209659576
1790521814269704400,4.620704345703125,-0.06842193752527237,0.16020537912845612,0.024221450090408325
1790521814279707100,4.63070703125,-0.05144667997956276,0.09045267105102539,0.012463061138987541
1790521814289710300,4.64071044921875,-0.03773166611790657,0.036912210285663605,0.007987086661159992
1790521814299713300,4.65071337890625,-0.021016601473093033,0.024218253791332245,0.011505122296512127
1790521814314717200,4.66571728515625,-0.004279167391359806,0.03003379888832569,0.005762814078480005
1790521814324719000,4.675718994140625,-0.018548917025327682,0.018797922879457474,-0.010920025408267975
1790521814334722300,4.685722412109375,-0.00842517614364624,-0.02984791062772274,-0.025966620072722435
1790521814344725200,4.695725341796875,0.01769244484603405,-0.07134076207876205,-0.02666250243782997
1790521814354728200,4.705728271484375,0.02250823751091957,-0.07278472185134888,-0.006431001238524914
1790521814364731400,4.7157314453125,0.015535283833742142,-0.06366153061389923,0.015259913168847561
1790521814374733300,4.7257333984375,0.02358335629105568,-0.06081967428326607,0.021076522767543793
1790521814384736300,4.735736328125,0.04013756662607193,-0.0644298568367958,0.009105614386498928
1790521814394739500,4.745739501953125,0.04204865172505379,-0.06754708290100098,-0.011672368273139
1790521814404742100,4.7557421875,0.04339620843529701,-0.05865372717380524,-0.01823892444372177
1790521814414744300,4.765744384765625,0.050583016127347946,-0.04844795912504196,-0.0007155913626775146
1790521814424747800,4.775747802734375,0.04890735447406769,-0.06019330024719238,0.04639333114027977
1790521814434750500,4.78575048828125,0.04526308551430702,-0.06241943687200546,0.08903373777866364
1790521814444753700,4.795753662109375,0.048029575496912,-0.025853700935840607,0.09228012710809708
1790521814454756900,4.8057568359375,0.05613517388701439,0.016148610040545464,0.05347973480820656
1790521814464758500,4.815758544921875,0.04899044707417488,0.04121721163392067,0.001294029993005097
1790521814474761700,4.82576171875,0.020500214770436287,0.03255048766732216,-0.029256688430905342
1790521814484764700,4.8357646484375,0.008538360707461834,0.017408818006515503,-0.0228605754673481
1790521814494767600,4.845767578125,0.03455637767910957,-0.0022559636272490025,0.002124936319887638
1790521814504769500,4.85576953125,0.05011509731411934,-0.009013468399643898,0.01757153682410717
1790521814514772700,4.865772705078125,0.037945251911878586,0.021528195589780807,0.0049614692106842995
1790521814524775700,4.875775634765625,0.01763518713414669,0.05170607194304466,-0.018341457471251488
1790521814534778600,4.885778564453125,0.00392869533970952,0.07064300775527954,-0.03590287268161774
1790521814544781600,4.895781494140625,-0.00028043086058460176,0.07991587370634079,-0.03773432970046997
1790521814554783500,4.905783447265625,0.0000697748182574287,0.06135230511426926,-0.015931827947497368
1790521814564786700,4.91578662109375,0.006176935974508524,0.02725612185895443,0.017165137454867363
1790521814574790000,4.925789794921875,0.019471967592835426,0.011422830633819103,0.045879874378442764
1790521814584792600,4.93579248046875,0.01948555000126362,-0.005527124274522066,0.05542917177081108
1790521814594794800,4.945794677734375,0.010293650440871716,0.0013930995482951403,0.037280794233083725
1790521814604797700,4.955797607421875,-0.0034844798501580954,0.012990899384021759,-0.0035020567011088133
1790521814614800600,4.965800537109375,-0.016932910308241844,0.012132029980421066,-0.0469328872859478
1790521814624803800,4.975803955078125,-0.01769031397998333,-0.014607438817620277,-0.06859264522790909
1790521814634806500,4.985806640625,-0.00032091091270558536,-0.04970177635550499,-0.06041833758354187
1790521814644808700,4.99580859375,0.021030450239777565,-0.07854408025741577,-0.02171914465725422
1790521814654811600,5.005811767578125,0.032284703105688095,-0.08278649300336838,0.020115388557314873
1790521814664814600,5.015814697265625,0.030051909387111664,-0.059310995042324066,0.04186888784170151
1790521814674817500,5.025817626953125,0.013381585478782654,-0.024149810895323753,0.03470950946211815
1790521814684819700,5.03581982421875,-0.00033156355493701994,0.014276407659053802,-0.005132177844643593
1790521814694822700,5.04582275390625,0.00006072007090551779,0.047992292791604996,-0.05531545355916023
1790521814704825600,5.05582568359375,-0.003923102747648954,0.0523497574031353,-0.08781027793884277
1790521814714828800,5.065828857421875,-0.013467072509229183,0.025859028100967407,-0.08887367695569992
1790521814724831500,5.07583154296875,-0.010974620468914509,0.05764465406537056,-0.06688209623098373
1790521814734833700,5.085833740234375,0.017102554440498352,0.35344433784484863,-0.05842415988445282
1790521814744836600,5.095836669921875,0.004742557182908058,0.1630975753068924,-0.05846916884183884
1790521814754839600,5.105839599609375,-0.05126744881272316,0.039929307997226715,-0.08179100602865219
1790521814764842800,5.1158427734375,-0.06379708647727966,-0.01095438003540039,-0.09367003291845322
1790521814774845700,5.125845703125,-0.03519473969936371,-0.050754789263010025,-0.06176323443651199
1790521814784847600,5.13584765625,0.007140467409044504,-0.0699433982372284,-0.0044083306565880775
1790521814794850600,5.1458505859375,0.020085826516151428,-0.10221026092767715,0.05035531520843506
1790521814804853800,5.155853759765625,0.008081362582743168,-0.12018925696611404,0.07405451685190201
1790521814814856700,5.165856689453125,-0.004701544530689716,-0.10150318592786789,0.05964921414852142
1790521814824858600,5.175858642578125,-0.012582104653120041,-0.07606946676969528,0.00586774293333292
1790521814834861800,5.18586181640625,-0.017226390540599823,-0.03688132017850876,-0.06669007986783981
1790521814844864500,5.195864501953125,-0.005216599907726049,-0.010045710019767284,-0.1158514991402626
1790521814854867700,5.20586767578125,0.009823336265981197,-0.003638144349679351,-0.11961614340543747
1790521814864871000,5.215870849609375,0.021626198664307594,-0.0020820593927055597,-0.07119348645210266
1790521814874872600,5.22587255859375,0.04543565958738327,0.0057492321357131,0.002160090021789074
1790521814884875800,5.235875732421875,0.06262928992509842,-0.012559201568365097,0.06773963570594788
1790521814894878700,5.245878662109375,0.0576007105410099,-0.053711697459220886,0.08868486434221268
1790521814904881700,5.255881591796875,0.03754604235291481,-0.048536110669374466,0.05625687912106514
1790521814914883600,5.265883544921875,0.027165574952960014,-0.01423646043986082,-0.020116720348596573
1790521814924886800,5.27588671875,0.020971594378352165,0.034635476768016815,-0.10559886693954468
1790521814934889500,5.285889404296875,0.008754076436161995,0.05094600468873978,-0.1435030996799469
1790521814944892700,5.295892578125,-0.01143028773367405,0.028745096176862717,-0.11340272426605225
1790521814954894800,5.305894775390625,-0.024710671976208687,0.01446948666125536,-0.029698241502046585
1790521814964897500,5.3158974609375,-0.022710904479026794,0.011753329075872898,0.06493479013442993
1790521814974900700,5.325900634765625,-0.013020194135606289,0.008433165960013866,0.12512809038162231
1790521814984903700,5.335903564453125,-0.012367453426122665,0.011919243261218071,0.12449266016483307
1790521814994906600,5.34590673828125,-0.015606123954057693,0.03978922590613365,0.08100004494190216
1790521815004908500,5.355908447265625,-0.01786688156425953,0.049420811235904694,0.02527632750570774
1790521815014911700,5.365911865234375,-0.015460449270904064,0.03804618492722511,-0.010744789615273476
1790521815024914700,5.375914794921875,-0.012798885814845562,0.007035805378109217,-0.009939982555806637
1790521815034917600,5.385917724609375,-0.012312060222029686,-0.05260302498936653,0.016992298886179924
1790521815044920600,5.395920654296875,-0.01980539597570896,-0.08300354331731796,0.04578959196805954
1790521815054922500,5.405922607421875,-0.029466545209288597,-0.07492377609014511,0.06385594606399536
1790521815064925700,5.41592578125,-0.02943591959774494,-0.056665144860744476,0.060507819056510925
1790521815074928600,5.4259287109375,-0.022286929190158844,-0.03900465741753578,0.032525185495615005
1790521815084931600,5.435931640625,-0.020177174359560013,-0.02942846156656742,-0.004834969062358141
1790521815094933800,5.445933837890625,-0.026435868814587593,-0.041072867810726166,-0.02864069864153862
1790521815104936700,5.455936767578125,-0.028209000825881958,-0.06707410514354706,-0.04020920395851135
1790521815114939600,5.465939697265625,-0.009863283485174179,-0.07462763041257858,-0.05787448585033417
1790521815124942800,5.47594287109375,0.02611335925757885,-0.05691840872168541,-0.06077892705798149
1790521815134944800,5.48594482421875,0.06384901702404022,-0.110282301902771,-0.05086051672697067
1790521815144947700,5.49594775390625,0.03791196271777153,-0.05211406573653221,-0.01984987035393715
1790521815154950700,5.50595068359375,0.030615700408816338,-0.040117859840393066,0.012322179973125458
1790521815164953600,5.51595361328125,0.034221354871988297,-0.050196323543787,0.03977138176560402
1790521815174956500,5.52595654296875,0.028743764385581017,-0.028119785711169243,0.054136473685503006
1790521815184958700,5.535958740234375,0.027158383280038834,-0.0331004299223423,0.05638417974114418
1790521815194961700,5.545961669921875,0.0174423735588789,-0.04638960212469101,0.0388837493956089
1790521815204964600,5.555964599609375,-0.013194898143410683,-0.039569512009620667,-0.004453604109585285
1790521815214967800,5.5659677734375,-0.043602071702480316,-0.02972780168056488,-0.06421680003404617
1790521815224969700,5.5759697265625,-0.05674104392528534,-0.028210066258907318,-0.12697020173072815
1790521815234972700,5.58597265625,-0.06879397481679916,-0.04374588280916214,-0.15867672860622406
1790521815244975600,5.5959755859375,-0.07338286936283112,-0.06570550799369812,-0.13908065855503082
1790521815254978600,5.605978515625,-0.06455129384994507,-0.06881634891033173,-0.07438022643327713
1790521815264981800,5.615981689453125,-0.041361819952726364,-0.06311851739883423,0.008614260703325272
1790521815274983700,5.625983642578125,-0.02431066520512104,-0.04559757933020592,0.08194040507078171
1790521815284986600,5.635986572265625,-0.025201493874192238,-0.016984310001134872,0.12561890482902527
1790521815294989600,5.645989501953125,-0.036073047667741776,0.0003539340978022665,0.13225391507148743
1790521815304992800,5.65599267578125,-0.04109683632850647,-0.012229768559336662,0.10069598257541656
1790521815314994700,5.66599462890625,-0.04791159927845001,-0.010114419274032116,0.050581686198711395
1790521815324997600,5.67599755859375,-0.04996170103549957,-0.015136342495679855,0.0024106933269649744
1790521815335000800,5.686000732421875,-0.042924828827381134,-0.03313824534416199,-0.018974490463733673
1790521815345003500,5.69600341796875,-0.023090139031410217,-0.05260036140680313,-0.0015305186389014125
1790521815355005700,5.706005615234375,-0.0027355989441275597,-0.05366908758878708,0.03760809451341629
1790521815365008600,5.716008544921875,0.003358512418344617,-0.03056270256638527,0.07330457121133804
1790521815375011600,5.726011474609375,-0.002516953507438302,-0.0019166769925504923,0.09370491653680801
1790521815385014800,5.736014892578125,-0.004335626028478146,0.01327186357229948,0.08560678362846375
1790521815395017700,5.746017822265625,0.0030333404429256916,0.026741066947579384,0.051022969186306
1790521815405019600,5.75601953125,0.005105279851704836,0.02917865850031376,0.009754626080393791
1790521815415022600,5.766022705078125,-0.004445614758878946,0.02345952019095421,-0.01804770901799202
1790521815425025500,5.776025634765625,-0.022972960025072098,0.00780545873567462,-0.027091804891824722
1790521815435028500,5.786028564453125,-0.03429432585835457,-0.0028847360517829657,-0.006293582264333963
1790521815445030400,5.796030517578125,-0.03885951638221741,-0.006699181627482176,0.04261457175016403
1790521815455033600,5.80603369140625,-0.037874944508075714,-0.0035665053874254227,0.1014760211110115
1790521815465036500,5.81603662109375,-0.035112179815769196,-0.011197793297469616,0.14814285933971405
1790521815475039500,5.82603955078125,-0.04147127643227577,-0.03364238142967224,0.1661631464958191
1790521815485042700,5.836042724609375,-0.05655995011329651,-0.060207948088645935,0.16111645102500916
1790521815495044400,5.84604443359375,-0.06106255576014519,-0.0844525694847107,0.13905775547027588
1790521815505047600,5.856047607421875,-0.05188024044036865,-0.09639950841665268,0.10347659140825272
1790521815515050800,5.86605078125,-0.04938406124711037,-0.10766148567199707,0.06439176946878433
1790521815525053400,5.876053466796875,-0.05702919885516167,-0.14718998968601227,0.049309492111206055
1790521815535055600,5.8860556640625,-0.059593554586172104,-0.19235239923000336,0.0748598575592041
1790521815545058600,5.89605859375,-0.043106723576784134,-0.22500436007976532,0.13477912545204163
1790521815555061500,5.9060615234375,-0.012297146022319794,-0.22709600627422333,0.19738337397575378
1790521815565064400,5.916064453125,0.01227344386279583,-0.1906554400920868,0.2416459172964096
1790521815575067600,5.926067626953125,0.039212651550769806,-0.26404309272766113,0.22639665007591248
1790521815585069600,5.936069580078125,0.08697058260440826,-0.25539156794548035,0.07272613793611526
1790521815595072500,5.946072509765625,0.08548134565353394,0.044260405004024506,-0.09419121593236923
1790521815605075700,5.95607568359375,0.06657236814498901,0.058211375027894974,-0.23508813977241516
1790521815615078400,5.966078369140625,0.008494950830936432,-0.0007179882377386093,-0.31271129846572876
1790521815625080600,5.97608056640625,-0.02346830815076828,0.04559757933020592,-0.34549081325531006
1790521815635083500,5.98608349609375,-0.025186046957969666,0.05096811056137085,-0.3281152844429016
1790521815645086500,5.99608642578125,-0.01702398993074894,-0.0015614113071933389,-0.26916223764419556
1790521815655089700,6.006089599609375,0.0026226809713989496,-0.04025261476635933,-0.20620137453079224
1790521815665092400,6.01609228515625,0.030896930024027824,0.009181248024106026,-0.14683204889297485
1790521815675094500,6.026094482421875,0.04321964085102081,0.08848538994789124,-0.07736562937498093
1790521815685097500,6.036097412109375,0.025190308690071106,0.10366727411746979,0.014821023680269718
1790521815695100700,6.0461005859375,-0.016200806945562363,0.06252409517765045,0.10326407104730606
1790521815705103600,6.056103515625,-0.04111521318554878,0.018458636477589607,0.15418291091918945
1790521815715105500,6.06610546875,-0.036490101367235184,0.02623426727950573,0.15178287029266357
1790521815725108700,6.076108642578125,-0.01709136925637722,0.029228191822767258,0.12740881741046906
1790521815735111400,6.086111328125,-0.015842346474528313,0.004261590540409088,0.10776135325431824
1790521815745114600,6.096114501953125,-0.026128007099032402,-0.026876354590058327,0.11178858578205109
1790521815755117600,6.10611767578125,-0.028616730123758316,-0.023392407223582268,0.12080711126327515
1790521815765119500,6.116119384765625,-0.008357265964150429,-0.007676029112190008,0.11447464674711227
1790521815775122700,6.126122802734375,0.0075545888394117355,-0.0033430662006139755,0.08418704569339752
1790521815785125400,6.13612548828125,0.003561178920790553,-0.014876417815685272,0.023907197639346123
1790521815795128600,6.146128662109375,-0.0031220237724483013,-0.02238786406815052,-0.04966449365019798
1790521815805130500,6.156130615234375,0.0005829659639857709,-0.01702159456908703,-0.1085970476269722
1790521815815133700,6.1661337890625,0.01380982156842947,-0.02617407962679863,-0.12003079801797867
1790521815825136600,6.17613671875,0.021915951743721962,-0.062245532870292664,-0.0794181227684021
1790521815835139600,6.1861396484375,0.03003806062042713,-0.10362067073583603,-0.003896470880135894
1790521815845141800,6.196141845703125,0.04845115542411804,-0.15372590720653534,0.06983527541160583
1790521815855144400,6.20614453125,0.0645907074213028,-0.1823277324438095,0.12702159583568573
1790521815865147600,6.216147705078125,0.05789552256464958,-0.18504787981510162,0.1570439487695694
1790521815875150300,6.226150390625,0.03230893611907959,-0.17013578116893768,0.1603502631187439
1790521815885153500,6.236153564453125,0.010867561213672161,-0.16466671228408813,0.14814606308937073
1790521815895155500,6.246155517578125,0.006197175942361355,-0.15389423072338104,0.14931625127792358
1790521815905158400,6.256158447265625,0.0029321403708308935,-0.11614737659692764,0.16047382354736328
1790521815915161600,6.26616162109375,-0.006910370197147131,-0.08099444955587387,0.17787252366542816
1790521815925164500,6.27616455078125,-0.019652264192700386,-0.06389962136745453,0.17268548905849457
1790521815935166700,6.286166748046875,-0.026324547827243805,-0.0373511016368866,0.1366686373949051
1790521815945169400,6.29616943359375,-0.023021962493658066,-0.012406602501869202,0.07478076219558716
1790521815955172600,6.306172607421875,-0.019965186715126038,-0.027846811339259148,0.007253119256347418
1790521815965175600,6.316175537109375,0.0018735338235273957,-0.13780154287815094,-0.09158344566822052
1790521815975178500,6.326178466796875,0.0020216056145727634,-0.027512583881616592,-0.1749824583530426
1790521815985180700,6.3361806640625,0.005787315312772989,0.005829926114529371,-0.22268687188625336
1790521815995183400,6.346183349609375,0.007930360734462738,-0.010817227885127068,-0.2509797513484955
1790521816005186600,6.3561865234375,0.0005502090789377689,-0.026448918506503105,-0.2749798893928528
1790521816015189800,6.366189697265625,0.0033992587123066187,-0.03887895494699478,-0.2989283800125122
1790521816025191400,6.37619140625,0.021645640954375267,0.05440625175833702,-0.30180805921554565
1790521816035194600,6.386194580078125,0.03961052745580673,0.13934271037578583,-0.2375987023115158
1790521816045197600,6.396197509765625,0.053077332675457,0.11335931718349457,-0.13518790900707245
1790521816055200500,6.406200439453125,0.0629696473479271,0.08610212802886963,-0.0255194753408432
1790521816065203500,6.416203369140625,0.08723583817481995,0.06652043759822845,0.05891258642077446
1790521816075205600,6.42620556640625,0.1099800318479538,0.03626159951090813,0.10293091088533401
1790521816085208600,6.43620849609375,0.11038216948509216,0.019302858039736748,0.10590486228466034
1790521816095211500,6.44621142578125,0.10298390686511993,0.0335979089140892,0.07982771843671799
1790521816105214700,6.456214599609375,0.10499432682991028,0.03848933428525925,0.041069138795137405
1790521816115216400,6.46621630859375,0.10398871451616287,0.03561791405081749,0.008865396492183208
1790521816125219600,6.476219482421875,0.07849214226007462,0.045999716967344284,0.006323676090687513
1790521816135222500,6.486222412109375,0.04423696920275688,0.05615860968828201,0.02720285952091217
1790521816145225500,6.4962255859375,0.016656475141644478,0.054417967796325684,0.05771389603614807
1790521816155228700,6.506228759765625,-0.0008980178972706199,0.0288231261074543,0.0750015377998352
1790521816165230600,6.516230712890625,-0.035825908184051514,0.023518642410635948,0.07801943272352219
1790521816175233500,6.526233642578125,-0.06625039130449295,0.051111653447151184,0.08324828743934631
1790521816185236500,6.536236572265625,-0.08209673315286636,0.08877008408308029,0.0920279249548912
1790521816195239400,6.546239501953125,-0.0909528061747551,0.10083846002817154,0.1126469224691391
1790521816205241300,6.556241455078125,-0.0822373479604721,0.09146174043416977,0.13566675782203674
1790521816215244500,6.56624462890625,-0.05947184935212135,0.09915854036808014,0.1573033332824707
1790521816225247700,6.576247802734375,-0.023124760016798973,0.12247797846794128,0.1598820686340332
1790521816235250400,6.58625048828125,-0.004217914305627346,0.13107146322727203,0.12325987964868546
1790521816245253600,6.596253662109375,-0.0116135124117136,0.12894307076931,0.052801962941884995
1790521816255255600,6.606255615234375,-0.02696051076054573,0.13434289395809174,-0.034153442829847336
1790521816265258500,6.616258544921875,-0.031926240772008896,0.1457207202911377,-0.10207097232341766
1790521816275261700,6.62626171875,-0.02364327758550644,0.14615614712238312,-0.13351571559906006
1790521816285264400,6.636264404296875,-0.01738405041396618,0.07375545054674149,-0.14482936263084412
1790521816295266600,6.6462666015625,-0.016936905682086945,0.058815911412239075,-0.1483793556690216
1790521816305269500,6.65626953125,-0.01714463159441948,0.04285665228962898,-0.13849955797195435
1790521816315272400,6.6662724609375,-0.01130964607000351,0.009484581649303436,-0.11961321532726288
1790521816325275600,6.676275634765625,-0.023637685924768448,0.005417935084551573,-0.08828325569629669
1790521816335278600,6.686278564453125,-0.030644727870821953,-0.007368966471403837,-0.04665059223771095
1790521816345280800,6.69628076171875,-0.04146701470017433,0.006875216495245695,0.003291400847956538
1790521816355283500,6.706283447265625,-0.0453839935362339,0.0548989363014698,0.06639367341995239
1790521816365286700,6.71628662109375,-0.04572780802845955,0.08372978121042252,0.12862801551818848
1790521816375289300,6.726289306640625,-0.045167744159698486,0.09014853835105896,0.177285298705101
1790521816385291500,6.73629150390625,-0.06441494077444077,0.088820680975914,0.20239411294460297
1790521816395294500,6.74629443359375,-0.08789816498756409,0.09107185155153275,0.19877435266971588
1790521816405297400,6.75629736328125,-0.09525168687105179,0.10816002637147903,0.16697220504283905
1790521816415300600,6.766300537109375,-0.08653995394706726,0.13847026228904724,0.11051265895366669
1790521816425303600,6.776303466796875,-0.06898093223571777,0.1322946548461914,0.03165699541568756
1790521816435305500,6.786305419921875,-0.04771452397108078,0.09442929923534393,-0.05927743762731552
1790521816445308400,6.796308349609375,-0.03623070940375328,0.04603780061006546,-0.13198572397232056
1790521816455311600,6.8063115234375,-0.018875686451792717,0.004111654590815306,-0.16592851281166077
1790521816465314600,6.816314453125,0.0016258598770946264,-0.009267800487577915,-0.15949778258800507
1790521816475316500,6.82631640625,0.009368468075990677,-0.0000500674286740832,-0.13245098292827606
1790521816485319700,6.836319580078125,0.01125105656683445,0.0181739442050457,-0.09952126443386078
1790521816495322400,6.846322265625,0.008087487891316414,0.006127134896814823,-0.07781890034675598
1790521816505325600,6.85632568359375,0.013362144120037556,-0.01756248250603676,-0.06835935264825821
1790521816515328800,6.866328857421875,0.021771874278783798,-0.033902574330568314,-0.05146452412009239
1790521816525330400,6.876330322265625,0.027038808912038803,-0.053159359842538834,-0.014826083555817604
1790521816535333600,6.886333740234375,0.02666463330388069,-0.07858162373304367,0.027051856741309166
1790521816545336600,6.896336669921875,0.020304739475250244,-0.08143733441829681,0.06167348474264145
1790521816555339500,6.906339599609375,0.016592292115092278,-0.05456896871328354,0.07840292900800705
1790521816565342500,6.916342529296875,0.016655942425131798,-0.02298014983534813,0.07279084622859955
1790521816575344600,6.9263447265625,0.012443353421986103,0.013921674340963364,0.05718233063817024
1790521816585347600,6.93634765625,0.00586614478379488,0.03344956785440445,0.048711612820625305
1790521816595350500,6.9463505859375,0.007328486535698175,0.05489600449800491,0.04946688562631607
1790521816605353500,6.956353515625,0.006785201840102673,0.08537162095308304,0.054480552673339844
1790521816615355400,6.96635546875,0.0031960594933480024,0.09661735594272614,0.052386507391929626
1790521816625358600,6.976358642578125,-0.010423879139125347,0.11202054470777512,0.04187687486410141
1790521816635361500,6.986361572265625,-0.019090870395302773,0.12218982726335526,0.015446067787706852
1790521816645364500,6.996364501953125,-0.015469769947230816,0.13133752346038818,-0.029344573616981506
1790521816655367700,7.00636767578125,-0.017895109951496124,0.11577852815389633,-0.06699500977993011
1790521816665369600,7.01636962890625,-0.017374729737639427,0.08800256252288818,-0.08247969299554825
1790521816675372500,7.02637255859375,-0.01318344660103321,0.06828264892101288,-0.08030255883932114
1790521816685375500,7.03637548828125,-0.0036011263728141785,0.05221979320049286,-0.06892313808202744
1790521816695378400,7.04637841796875,-0.004602475091814995,0.06945417821407318,-0.053468551486730576
1790521816705380400,7.05638037109375,-0.012761334888637066,0.0668373554944992,-0.033611755818128586
1790521816715383600,7.066383544921875,-0.023199595510959625,0.03236433118581772,-0.013251356780529022
1790521816725386500,7.076386474609375,-0.031129423528909683,-0.004162786994129419,0.008836101740598679
1790521816735389400,7.086389404296875,-0.029195968061685562,-0.0267152339220047,0.028438033536076546
1790521816745392600,7.096392578125,-0.02195936068892479,-0.03477262705564499,0.04807804524898529
1790521816755394600,7.10639453125,-0.012974121607840061,-0.014257765375077724,0.06882407516241074
1790521816765397500,7.1163974609375,-0.012690761126577854,-0.0059745353646576405,0.09473050385713577
1790521816775400700,7.126400634765625,-0.020307136699557304,-0.008495749905705452,0.12583541870117188
1790521816785403400,7.1364033203125,-0.023802002891898155,0.018441591411828995,0.1434820592403412
1790521816795406600,7.146406494140625,-0.021495172753930092,0.02352689765393734,0.1463068723678589
1790521816805408500,7.156408447265625,-0.008008125238120556,0.04911481589078903,0.11395639926195145
1790521816815411500,7.166411376953125,0.0035774242132902145,0.08580545336008072,0.048601359128952026
1790521816825414700,7.17641455078125,0.002877545543015003,0.09993218630552292,-0.02311410754919052
1790521816835417600,7.18641748046875,0.002490055514499545,0.08015155792236328,-0.0747235044836998
1790521816845419500,7.19641943359375,0.014268417842686176,0.03099866211414337,-0.08673196285963058
1790521816855422500,7.20642236328125,0.030355509370565414,0.0003230414295103401,-0.0725727379322052
1790521816865425700,7.21642578125,0.02587580494582653,-0.0006399576086550951,-0.049305230379104614
1790521816875428400,7.226428466796875,0.02617674320936203,-0.02101100981235504,-0.04717230424284935
1790521816885431600,7.236431640625,0.025201227515935898,-0.028385834768414497,-0.07172505557537079
1790521816895433500,7.24643359375,0.018509767949581146,-0.042862776666879654,-0.10765961557626724
1790521816905436400,7.2564365234375,0.011775699444115162,-0.05357534438371658,-0.12408945709466934
1790521816915439600,7.266439697265625,0.004733502399176359,-0.039146602153778076,-0.11003489047288895
1790521816925442600,7.276442626953125,-0.0054520233534276485,-0.03232491761445999,-0.05564568564295769
1790521816935445500,7.286445556640625,-0.020358001813292503,-0.04404975101351738,0.018664231523871422
1790521816945447400,7.296447509765625,-0.02556501515209675,-0.04204865172505379,0.08848033100366592
1790521816955450600,7.30645068359375,-0.006879744119942188,-0.06544878333806992,0.13122592866420746
1790521816965453600,7.31645361328125,0.006886135786771774,-0.047090545296669006,0.14821769297122955
1790521816975456500,7.32645654296875,-0.02226083166897297,-0.07068002969026566,0.15208807587623596
1790521816985458700,7.336458740234375,-0.034205641597509384,-0.08891948312520981,0.13392211496829987
1790521816995461400,7.34646142578125,-0.02129170671105385,-0.05139927566051483,0.11798602342605591
1790521817005464600,7.356464599609375,-0.007142065558582544,-0.01738564856350422,0.1032310500741005
1790521817015467500,7.366467529296875,-0.00809148233383894,-0.007836883887648582,0.08783930540084839
1790521817025470500,7.376470458984375,-0.0134452348574996,-0.008740228600800037,0.07010771334171295
1790521817035472600,7.38647265625,-0.009635050781071186,0.012443087063729763,0.05132097750902176
1790521817045475600,7.3964755859375,-0.011937086470425129,0.04352563992142677,0.028616996482014656
1790521817055478500,7.406478515625,-0.007836617529392242,0.06500936299562454,0.0037816886324435472
1790521817065481500,7.4164814453125,-0.0011030812747776508,0.04719707369804382,-0.010294981300830841
1790521817075484400,7.426484375,0.00959563534706831,0.025124793872237206,-0.012538694776594639
1790521817085486600,7.436486572265625,0.015327024273574352,0.0009137305896729231,-0.005840312223881483
1790521817095489500,7.446489501953125,0.014164288528263569,-0.000743820914067328,-0.00038216362008824944
1790521817105492500,7.456492431640625,0.018694858998060226,0.0067828050814569,-0.004249339923262596
1790521817115495400,7.466495361328125,0.008159925229847431,0.010316819883883,0.00013502225920092314
1790521817125497600,7.47649755859375,-0.0067971860989928246,0.0024557008873671293,0.021160412579774857
1790521817135500500,7.48650048828125,-0.02455274760723114,-0.018097510561347008,0.04556162655353546
1790521817145503500,7.49650341796875,-0.038179341703653336,-0.0606074221432209,0.06540137529373169
1790521817155506700,7.506506591796875,-0.040586575865745544,-0.06702616810798645,0.07023847848176956
1790521817165509400,7.51650927734375,-0.037450700998306274,-0.06284607201814651,0.06481707841157913
1790521817175511600,7.526511474609375,-0.037279460579156876,-0.06590551137924194,0.05548802763223648
1790521817185514500,7.536514404296875,-0.03483175113797188,-0.06452439725399017,0.04236050695180893
1790521817195517400,7.546517333984375,-0.026008963584899902,-0.06685999035835266,0.0296737402677536
1790521817205520600,7.556520751953125,-0.01926450803875923,-0.0607091523706913,0.03255421295762062
1790521817215523600,7.566523681640625,-0.0002079928817693144,-0.04806606099009514,0.05257505923509598
1790521817225525500,7.576525390625,0.0212395079433918,-0.04862665757536888,0.08787179738283157
1790521817235528400,7.586528564453125,0.034626685082912445,-0.066358782351017,0.1207040473818779
1790521817245531600,7.59653173828125,0.03903661668300629,-0.0801054909825325,0.13485795259475708
1790521817255534600,7.60653466796875,0.03833726793527603,-0.08387279510498047,0.11898098140954971
1790521817265536500,7.61653662109375,0.040047284215688705,-0.056179117411375046,0.06876068562269211
1790521817275539700,7.626539794921875,0.02990756556391716,-0.0021675468888133764,-0.0022237394005060196
1790521817285542400,7.63654248046875,0.008417985402047634,0.017710287123918533,-0.06071101874113083
1790521817295545600,7.646545654296875,0.006637396290898323,0.007640609052032232,-0.08763451129198074
1790521817305548500,7.656548583984375,0.01780802570283413,-0.011600463651120663,-0.07598504424095154
1790521817315550500,7.666550537109375,0.022886406630277634,-0.046963781118392944,-0.04044675827026367
1790521817325553700,7.6765537109375,0.026803119108080864,-0.08510211110115051,-0.006457366514950991
1790521817335556600,7.686556640625,0.021341241896152496,-0.08250206708908081,0.004028563853353262
1790521817345559600,7.6965595703125,0.013560017570853233,-0.06529218703508377,0.006667490117251873
1790521817355562500,7.7065625,0.011654525063931942,-0.10992729663848877,0.023601999506354332
1790521817365564700,7.716564697265625,0.012613795697689056,-0.10995073616504669,0.06585411727428436
1790521817375567400,7.7265673828125,-0.0008849684381857514,-0.15061107277870178,0.14574362337589264
1790521817385570600,7.736570556640625,0.031068436801433563,-0.1649458110332489,0.2340865284204483
1790521817395573500,7.746573486328125,0.09265749901533127,-0.12878140807151794,0.2753945589065552
1790521817405575400,7.756575439453125,0.055990565568208694,-0.058094460517168045,0.29191839694976807
1790521817415578600,7.76657861328125,0.028555212542414665,0.018613630905747414,0.28609994053840637
1790521817425581300,7.776581298828125,0.10696985572576523,0.03873727470636368,0.2395087331533432
1790521817435584300,7.786584228515625,0.1484222263097763,-0.03683790937066078,0.15920163691043854
1790521817445587200,7.796587158203125,0.03749357908964157,-0.02586941421031952,0.014972291886806488
1790521817455589400,7.80658935546875,0.037575870752334595,0.01829485036432743,-0.14450471103191376
1790521817465592000,7.816592041015625,0.07498982548713684,0.10355222225189209,-0.23499201238155365
1790521817475595300,7.82659521484375,0.1017436683177948,0.24867479503154755,-0.2646143436431885
1790521817485598200,7.83659814453125,0.15302976965904236,0.41595458984375,-0.23710016906261444
1790521817495601200,7.84660107421875,0.19200566411018372,0.5014479160308838,-0.16673651337623596
1790521817505603300,7.856603271484375,0.15527454018592834,0.2988729774951935,-0.09918677061796188
1790521817515606300,7.866606201171875,0.08829577267169952,0.061941929161548615,-0.04499224200844765
1790521817525609200,7.876609130859375,0.0008988168556243181,-0.06189452484250069,0.013921940699219704
1790521817535612200,7.886612060546875,-0.03289589658379555,-0.1894245147705078,0.044010333716869354
1790521817545615000,7.896614990234375,0.029349366202950478,-0.19592715799808502,-0.002920954953879118
1790521817555617000,7.906616943359375,-0.0825854241847992,0.047252997756004333,0.016680710017681122
1790521817565620200,7.9166201171875,-0.022543923929333687,0.1518571674823761,-0.029867084696888924
1790521817575623200,7.926623046875,0.08003917336463928,0.09143883734941483,-0.12819258868694305
1790521817585626000,7.936626220703125,-0.0023880566004663706,0.11217420548200607,-0.18999257683753967
1790521817595628300,7.946628173828125,-0.07080332934856415,0.10563348233699799,-0.19174599647521973
1790521817605631200,7.95663134765625,-0.032941970974206924,0.015177355147898197,-0.12410037964582443
1790521817615634200,7.96663427734375,0.042448125779628754,-0.0679316446185112,-0.05223790556192398
1790521817625637400,7.976637451171875,0.041851840913295746,-0.08737378567457199,-0.012136291712522507
1790521817635640000,7.98664013671875,-0.005555354058742523,-0.08181523531675339,0.0117352195084095
1790521817645642200,7.996642333984375,-0.030356574803590775,-0.08459584414958954,0.049137186259031296
1790521817655645200,8.006645263671874,-0.02804867923259735,-0.10170132666826248,0.0944356918334961
1790521817665648000,8.016648193359375,-0.030472155660390854,-0.09702374786138535,0.12102416157722473
1790521817675651300,8.0266513671875,-0.04592647776007652,-0.07417809218168259,0.122975192964077
1790521817685654300,8.036654296875,-0.049858637154102325,-0.046599458903074265,0.10512854903936386
1790521817695656200,8.04665625,-0.05473754554986954,-0.004566255956888199,0.08864597976207733
1790521817705659100,8.0566591796875,-0.05945027619600296,0.011901400052011013,0.07186567038297653
1790521817715662300,8.066662353515625,-0.06326845288276672,-0.008698683232069016,0.05091191828250885
1790521817725665000,8.0766650390625,-0.05548083409667015,-0.02166827768087387,0.024221716448664665
1790521817735668200,8.086668212890626,-0.044974133372306824,-0.01092588435858488,-0.013489177450537682
1790521817745670400,8.09667041015625,-0.031249532476067543,0.016284430399537086,-0.05068741366267204
1790521817755673000,8.106673095703124,-0.017719607800245285,0.040835581719875336,-0.0760449692606926
1790521817765676300,8.11667626953125,0.0036136433482170105,0.03831889480352402,-0.07873662561178207
1790521817775679200,8.12667919921875,0.01936624012887478,0.0016844493802636862,-0.05830538272857666
1790521817785682200,8.13668212890625,0.017170730978250504,-0.03591911867260933,-0.03722513094544411
1790521817795684000,8.14668408203125,-0.003820837242528796,-0.04085395485162735,-0.03207005187869072
1790521817805687300,8.156687255859374,-0.030300114303827286,-0.00315930787473917,-0.045218076556921005
1790521817815690200,8.166690185546875,-0.0562712624669075,0.0701841488480568,-0.0679582804441452
1790521817825693200,8.176693115234375,-0.07076418399810791,0.1331908106803894,-0.08305547386407852
1790521817835695400,8.1866953125,-0.06336405873298645,0.17564693093299866,-0.07476824522018433
1790521817845698000,8.196697998046876,-0.048283375799655914,0.18134263157844543,-0.043893422931432724
1790521817855701200,8.206701171875,-0.03245248273015022,0.1344962865114212,0.002650377806276083
1790521817865704200,8.2167041015625,-0.01329769566655159,0.06358776241540909,0.05092363432049751
1790521817875707100,8.22670703125,0.01193975005298853,0.0029260150622576475,0.08947741985321045
1790521817885709300,8.236709228515625,0.04063611105084419,-0.04735340178012848,0.11086766421794891
1790521817895712300,8.246712158203126,0.05884787067770958,-0.05896158888936043,0.10254421830177307
1790521817905715200,8.256715087890624,0.05522916838526726,-0.05115213245153427,0.07491552084684372
1790521817915718400,8.266718505859375,0.05379372462630272,-0.021322865039110184,0.040886979550123215
1790521817925721000,8.27672119140625,0.06300826370716095,0.00806298665702343,0.006543386727571487
1790521817935723300,8.28672314453125,0.08733144402503967,0.014487329870462418,-0.01561091747134924
1790521817945726200,8.296726318359376,0.1056302860379219,-0.009810819290578365,-0.02853071130812168
1790521817955729200,8.306729248046874,0.11893011629581451,-0.035303130745887756,-0.040656883269548416
1790521817965732000,8.316732177734375,0.12481383979320526,-0.03808853030204773,-0.05313778668642044
1790521817975735300,8.3267353515625,0.13096466660499573,-0.04482712596654892,-0.05902896448969841
1790521817985737200,8.3367373046875,0.13583959639072418,-0.05992618575692177,-0.060505688190460205
1790521817995740200,8.346740234375,0.11648426949977875,-0.05096651241183281,-0.07170188426971436
1790521818005743400,8.356743408203124,0.07819227129220963,-0.02742975950241089,-0.0753386989235878
1790521818015746000,8.36674609375,0.05257479473948479,-0.0019587550777941942,-0.06479444354772568
1790521818025749200,8.376749267578125,0.03241413086652756,0.0203313697129488,-0.05333166569471359
1790521818035751200,8.386751220703125,0.01618828997015953,0.05958583205938339,-0.04721518233418465
1790521818045754000,8.396754150390626,0.008856075815856457,0.0769355297088623,-0.04458557814359665
1790521818055757300,8.40675732421875,0.01341753825545311,0.07524947822093964,-0.03773992136120796
1790521818065760300,8.41676025390625,0.017198694869875908,0.05968303605914116,-0.03151771053671837
1790521818075762200,8.42676220703125,0.017786720767617226,0.029024994000792503,-0.009464342147111893
1790521818085765000,8.43676513671875,0.013402357697486877,-0.040582314133644104,0.04062625765800476
1790521818095768300,8.446768310546876,0.0026671558152884245,-0.11232174932956696,0.09399174153804779
1790521818105771300,8.456771240234374,-0.023781228810548782,-0.13334500789642334,0.1337554007768631
1790521818115774200,8.466774169921875,-0.04861520603299141,-0.11313800513744354,0.1309385746717453
1790521818125776400,8.4767763671875,-0.05602385476231575,-0.056899502873420715,0.08847180753946304
1790521818135779000,8.486779052734375,-0.04808976501226425,0.02185017056763172,0.016343818977475166
1790521818145782300,8.4967822265625,-0.036673326045274734,0.08431701362133026,-0.050997935235500336
1790521818155785200,8.50678515625,-0.019936157390475273,0.09024228155612946,-0.08263655751943588
1790521818165788200,8.5167880859375,0.007801463827490807,0.05524860695004463,-0.07376876473426819
1790521818175790300,8.526790283203125,0.04356745257973671,0.0031169636640697718,-0.04021026939153671
1790521818185793300,8.536793212890625,0.06476221978664398,-0.052261341363191605,-0.01067821029573679
1790521818195796200,8.546796142578126,0.054965779185295105,-0.08234094828367233,-0.008158594369888306
1790521818205799200,8.556799072265624,0.022912239655852318,-0.061833009123802185,-0.03591832146048546
1790521818215802000,8.566802001953125,-0.01073679979890585,-0.016324112191796303,-0.0796695277094841
1790521818225804000,8.576803955078125,-0.040647827088832855,0.051367051899433136,-0.11902438849210739
1790521818235807200,8.58680712890625,-0.07042542845010757,0.13931287825107574,-0.13723349571228027
1790521818245810200,8.59681005859375,-0.09770046174526215,0.20588313043117523,-0.12069819122552872
1790521818255813000,8.606813232421874,-0.10327126085758209,0.23736967146396637,-0.07014632970094681
1790521818265816300,8.61681640625,-0.09166227281093597,0.2114483267068863,0.0004934837343171239
1790521818275818000,8.62681787109375,-0.07220335304737091,0.13482679426670074,0.055919989943504333
1790521818285821200,8.6368212890625,-0.05928835645318031,0.060023389756679535,0.08672583848237991
1790521818295824400,8.646824462890624,-0.045873481780290604,0.014329138211905956,0.09527858346700668
1790521818305827000,8.6568271484375,-0.029533391818404198,-0.01667778007686138,0.10083846002817154
1790521818315830300,8.666830322265625,-0.0042706448584795,-0.02966308780014515,0.10376128554344177
1790521818325832200,8.676832275390625,0.05007541924715042,-0.04095995053648949,0.10989081114530563
1790521818335835100,8.686835205078125,0.06315313279628754,-0.010368218645453453,0.10970652103424072
1790521818345838300,8.69683837890625,0.059475842863321304,-0.013313940726220608,0.09141433238983154
1790521818355841300,8.70684130859375,0.06541629135608673,-0.03513162210583687,0.04884317144751549
1790521818365843200,8.71684326171875,0.0659039169549942,-0.05242166295647621,-0.007743939757347107
1790521818375846100,8.72684619140625,0.04947860166430473,-0.06279867142438889,-0.061645254492759705
1790521818385849300,8.736849365234375,0.0316103920340538,-0.052803292870521545,-0.09821924567222595
1790521818395852300,8.746852294921876,0.016752349212765694,-0.03554680943489075,-0.11375692486763
1790521818405855200,8.756855224609374,-0.007311708759516478,-0.030222084373235703,-0.10835283994674683
1790521818415857400,8.766857421875,-0.03448154404759407,-0.02365100011229515,-0.09704212844371796
1790521818425860000,8.776860107421875,-0.04025394469499588,-0.007561246864497662,-0.09955482184886932
1790521818435863000,8.786863037109375,-0.033733729273080826,0.028245752677321434,-0.11145328730344772
1790521818445866000,8.796865966796876,-0.027819646522402763,0.06669194251298904,-0.11477292329072952
1790521818455869200,8.806869140625,-0.017230385914444923,0.0542009212076664,-0.09674865007400513
1790521818465871000,8.81687109375,0.011209777556359768,-0.00920308567583561,-0.04809056222438812
1790521818475874300,8.826874267578125,0.04783010482788086,-0.08671225607395172,0.02322116680443287
1790521818485877000,8.836876953125,0.08974053710699081,-0.1501615345478058,0.09900753945112228
1790521818495880200,8.846880126953126,0.11545522511005402,-0.18285636603832245,0.14216965436935425
1790521818505883000,8.8568828125,0.10404571145772934,-0.1532856971025467,0.13890781998634338
1790521818515885000,8.866885009765625,0.07483375817537308,-0.07226008176803589,0.09502531588077545
1790521818525888000,8.876887939453125,0.054733552038669586,-0.009649431332945824,0.030492395162582397
1790521818535891000,8.886890869140625,0.059418052434921265,0.018070613965392113,-0.028852419927716255
1790521818545894100,8.89689404296875,0.07510353624820709,-0.005785717628896236,-0.05885373055934906
1790521818555897000,8.90689697265625,0.1037524938583374,-0.05697167292237282,-0.061595186591148376
1790521818565899000,8.91689892578125,0.14502961933612823,-0.11721797287464142,-0.041912030428647995
1790521818575902000,8.92690185546875,0.1819000244140625,-0.18443216383457184,-0.019343070685863495
1790521818585905200,8.9369052734375,0.18772010505199432,-0.2071361392736435,-0.0035265579354017973
1790521818595908000,8.946908203125,0.159055694937706,-0.17419417202472687,0.002124403603374958
1790521818605911000,8.9569111328125,0.10979413986206055,-0.11606002599000931,0.003650394966825843
1790521818615913200,8.966913330078125,0.05428560823202133,-0.06667303293943405,0.00692049041390419
1790521818625916000,8.976916015625,0.0017544905422255397,-0.03508022427558899,-0.004975850228220224
1790521818635919000,8.986919189453126,-0.05080192908644676,-0.008353803306818008,-0.027175161987543106
1790521818645922300,8.99692236328125,-0.09584823250770569,0.029987992718815804,-0.04555443674325943
1790521818655925000,9.006925048828125,-0.12788605690002441,0.07874594628810883,-0.04989086091518402
1790521818665927200,9.01692724609375,-0.15777231752872467,0.11726617068052292,-0.0479547418653965
1790521818675930000,9.02693017578125,-0.17799077928066254,0.15070882439613342,-0.043654534965753555
1790521818685933000,9.03693310546875,-0.16070020198822021,0.18815739452838898,-0.03129001334309578
1790521818695936300,9.046936279296874,-0.11178085952997208,0.1831040382385254,0.0008274441352114081
1790521818705938200,9.056938232421874,-0.04379595071077347,0.132829949259758,0.03444213047623634
1790521818715941000,9.066941162109375,0.01871163584291935,0.08787871897220612,0.04592994228005409
1790521818725944000,9.076944091796875,0.05902603641152382,0.04176102951169014,0.034326281398534775
1790521818735947000,9.086947021484375,0.07737894356250763,-0.0172658059746027,0.013463078066706657
1790521818745950000,9.096949951171876,0.08064158260822296,-0.05247572436928749,-0.013163206167519093
1790521818755952000,9.1069521484375,0.07770118862390518,-0.03621579334139824,-0.028834844008088112
1790521818765955000,9.116955078125,0.06559445708990097,0.010468353517353535,-0.03543895110487938
1790521818775958000,9.1269580078125,0.04078737646341324,0.055873118340969086,-0.04634406417608261
1790521818785961200,9.136961181640626,0.01013678964227438,0.07376237213611603,-0.06512574106454849
1790521818795964000,9.1469638671875,-0.02257028967142105,0.06247109919786453,-0.07812090218067169
1790521818805966000,9.156966064453124,-0.04904743656516075,0.03456250578165054,-0.07640289515256882
1790521818815969000,9.166968994140625,-0.06021380424499512,0.033304959535598755,-0.06003910303115845
1790521818825972000,9.176971923828125,-0.06507700681686401,0.0625201016664505,-0.037990789860486984
1790521818835975200,9.18697509765625,-0.06967148929834366,0.09129023551940918,-0.02117106504738331
1790521818845978000,9.19697802734375,-0.07335277646780014,0.08596790581941605,-0.005573197267949581
1790521818855980000,9.20697998046875,-0.06401493400335312,0.052201684564352036,0.0167989544570446
1790521818865983000,9.21698291015625,-0.03943129628896713,-0.018620289862155914,0.048838112503290176
1790521818875986200,9.226986083984375,-0.0016998957144096494,-0.07861997932195663,0.10518421232700348
1790521818885989000,9.236989013671876,0.03200160712003708,-0.10559273511171341,0.162099689245224
1790521818895992000,9.246991943359374,0.039191342890262604,-0.1001947745680809,0.1940658837556839
1790521818905994200,9.256994140625,0.01576564647257328,-0.08137474954128265,0.17460855841636658
1790521818915997000,9.266996826171875,0.004664526786655188,-0.030398385599255562,0.12125292420387268
1790521818926000000,9.277000244140625,0.030458573251962662,0.004252535756677389,0.05860498920083046
1790521818936003000,9.287003173828126,0.07193304598331451,-0.007765245158225298,0.022103171795606613
1790521818946006000,9.297006103515624,0.10787826031446457,-0.043111782521009445,0.009907491505146027
1790521818956008200,9.30700830078125,0.1294354796409607,-0.06348682940006256,0.00971734244376421
1790521818966011100,9.31701123046875,0.1330033242702484,-0.0452636182308197,0.0009427590412087739
1790521818976014000,9.32701416015625,0.11040214449167252,-0.009875534102320671,-0.019239740446209908
1790521818986017000,9.33701708984375,0.0651923194527626,0.013714480213820934,-0.045822083950042725
1790521818996020000,9.34702001953125,0.02527686022222042,0.015734488144516945,-0.05667180195450783
1790521819006022000,9.35702197265625,0.013600231148302555,0.023299729451537132,-0.06034083664417267
1790521819016025000,9.367025146484375,0.017529459670186043,0.049967825412750244,-0.05157450959086418
1790521819026028000,9.377028076171875,0.0180588960647583,0.05745796486735344,-0.03554947301745415
1790521819036031000,9.387031005859376,0.007636880502104759,0.046421028673648834,-0.01595180295407772
1790521819046034200,9.3970341796875,-0.012367453426122665,0.013246829621493816,0.013979464769363403
1790521819056036000,9.4070361328125,-0.014272413216531277,-0.05332580581307411,0.04999738559126854
1790521819066039000,9.4170390625,-0.005762547720223665,-0.09985122829675674,0.08957595378160477
1790521819076042200,9.427042236328125,-0.008153799921274185,-0.09846319258213043,0.11322269588708878
1790521819086045000,9.437044921875,-0.021818479523062706,-0.05395324528217316,0.11073769629001617
1790521819096048000,9.447048095703124,-0.020418455824255943,-0.002570483135059476,0.09932072460651398
1790521819106050000,9.457050048828124,-0.00224957219325006,0.006571616046130657,0.09685623645782471
1790521819116053000,9.467052978515625,0.03271773084998131,-0.01582237333059311,0.1026504784822464
1790521819126056200,9.47705615234375,0.0694376602768898,-0.04737364128232002,0.10873180627822876
1790521819136059100,9.48705908203125,0.09161566942930222,-0.08026314526796341,0.10832913964986801
1790521819146062000,9.49706201171875,0.09236694872379303,-0.09152645617723465,0.08915703743696213
1790521819156064000,9.50706396484375,0.08380328863859177,-0.052393700927495956,0.04959365352988243
1790521819166067200,9.517067138671875,0.08082854002714157,0.012777048163115978,0.0060115535743534565
1790521819176070000,9.52706982421875,0.08381873369216919,0.07300124317407608,-0.039979640394449234
1790521819186073000,9.537072998046876,0.07405904680490494,0.08824677020311356,-0.0711471438407898
1790521819196076000,9.547075927734374,0.05209276080131531,0.05570267513394356,-0.08541397005319595
1790521819206078000,9.557077880859374,0.030220486223697662,0.023379091173410416,-0.07645881921052933
1790521819216081200,9.5670810546875,0.020056266337633133,0.0182903241366148,-0.050447728484869
1790521819226084000,9.577083984375,0.025286447256803513,0.05356735363602638,-0.02972833439707756
1790521819236087000,9.587087158203126,0.030303576961159706,0.09231288731098175,-0.022520754486322403
1790521819246090200,9.59709033203125,0.01962430216372013,0.10333171486854553,-0.015475628897547722
1790521819256092200,9.607092041015624,0.011659053154289722,0.052196092903614044,0.006857106927782297
1790521819266095000,9.61709521484375,0.007441671099513769,-0.0381937250494957,0.05571812391281128
1790521819276098000,9.62709814453125,0.0051835766062140465,-0.12740589678287506,0.11228419840335846
1790521819286101000,9.63710107421875,-0.0001382180635118857,-0.1620139330625534,0.14359498023986816
1790521819296104200,9.647104248046874,-0.02250184677541256,-0.11337582767009735,0.12533502280712128
1790521819306106000,9.657106201171874,-0.05270422250032425,-0.019815782085061073,0.060153618454933167
1790521819316109000,9.667109130859375,-0.06596144288778305,0.05998131260275841,-0.01276027038693428
1790521819326112000,9.677112060546875,-0.0517854318022728,0.08027353137731552,-0.05282299965620041
1790521819336115200,9.687115234375,-0.018975822255015373,0.03531324863433838,-0.04543033242225647
1790521819346118000,9.697117919921874,-0.002834668615832925,-0.022650450468063354,-0.008746353909373283
1790521819356120000,9.7071201171875,-0.00830000825226307,-0.04619412496685982,0.029324598610401154
1790521819366123300,9.717123291015625,-0.018702315166592598,-0.03153715282678604,0.044925395399332047
1790521819376126000,9.7271259765625,-0.03569807484745979,-0.0065527078695595264,0.04746871441602707
1790521819386129200,9.737129150390626,-0.048651691526174545,0.018035726621747017,0.03009345382452011
1790521819396132000,9.747132080078124,-0.04168273136019707,0.0604790560901165,-0.010945325717329979
1790521819406134000,9.757134033203124,-0.021408086642622948,0.10065843164920807,-0.060739777982234955
1790521819416137000,9.767136962890625,-0.008464591577649117,0.10949240624904633,-0.09269478172063828
1790521819426140200,9.77714013671875,-0.0000031957933970261365,0.09814441204071045,-0.10361028462648392
1790521819436143000,9.78714306640625,0.003885285696014762,0.07136765867471695,-0.0966716781258583
1790521819446146000,9.79714599609375,0.009493104182183743,0.01619335077702999,-0.062125954777002335
1790521819456148200,9.807148193359374,0.025645442306995392,-0.04506867378950119,-0.01366414688527584
1790521819466151000,9.81715087890625,0.025303225964307785,-0.06125962734222412,0.017775801941752434
1790521819476154000,9.827154052734375,-0.004437359049916267,-0.017703097313642502,0.01720508560538292
1790521819486157000,9.837156982421876,-0.05440252274274826,0.027885161340236664,0.009274724870920181
1790521819496160000,9.847159912109374,-0.0901637151837349,0.013854296877980232,0.025349831208586693
1790521819506163200,9.8571630859375,-0.08919113129377365,-0.023964721709489822,0.06438431888818741
1790521819516165000,9.8671650390625,-0.0734449252486229,-0.058823902159929276,0.0986701175570488
1790521819526168000,9.87716796875,-0.06598754227161407,-0.05854054167866707,0.099028579890728
1790521819536171000,9.8871708984375,-0.07125553488731384,-0.02160675823688507,0.06692736595869064
1790521819546174000,9.897174072265624,-0.0836472287774086,0.02791791781783104,0.021455757319927216
1790521819556177200,9.90717724609375,-0.07674697786569595,0.05555300787091255,-0.013754960149526596
1790521819566179000,9.917178955078125,-0.040103211998939514,0.04893878102302551,-0.015955530107021332
1790521819576182000,9.92718212890625,0.022897591814398766,-0.004825115203857422,0.0062605589628219604
1790521819586185000,9.93718505859375,0.06659074127674103,-0.058625228703022,0.017100423574447632
1790521819596188200,9.947188232421874,0.06949971616268158,-0.05969661846756935,-0.01500904280692339
1790521819606191000,9.957191162109375,0.048702556639909744,-0.028188494965434074,-0.061945658177137375
1790521819616193000,9.967193115234375,0.03934261202812195,0.017421068623661995,-0.09549775719642639
1790521819626196200,9.9771962890625,0.0476471483707428,0.06145590543746948,-0.09970981627702713
1790521819636199000,9.987198974609376,0.06009236350655556,0.08783131837844849,-0.08843132853507996
1790521819646202000,9.9972021484375,0.06448551267385483,0.08020962029695511,-0.06357578188180923
1790521819656205000,10.007205078125,0.062007445842027664,0.0446590818464756,-0.0326538160443306
1790521819666207000,10.01720703125,0.07315117865800858,0.0049311090260744095,0.012147743254899979
1790521819676210000,10.0272099609375,0.09460853040218353,-0.039212118834257126,0.06627888977527618
1790521819686213000,10.037213134765626,0.09583918005228043,-0.10951477289199829,0.12167104333639145
1790521819696216000,10.047216064453124,0.06101861223578453,-0.18858030438423157,0.15351206064224243
1790521819706219000,10.057218994140625,-0.01601438596844673,-0.22295531630516052,0.15469743311405182
1790521819716221200,10.06722119140625,-0.11672928184270859,-0.16593997180461884,0.13618819415569305
1790521819726224000,10.077223876953125,-0.19802147150039673,-0.07119881361722946,0.12038499861955643
1790521819736227000,10.08722705078125,-0.2425822764635086,0.008135956712067127,0.09839661419391632
1790521819746230000,10.09722998046875,-0.27191275358200073,0.13252422213554382,0.025483522564172745
1790521819756233000,10.10723291015625,-0.3138761818408966,0.3278098404407501,-0.10085630416870117
1790521819766235100,10.117235107421875,-0.3192019462585449,0.5308218002319336,-0.22370579838752747
1790521819776238000,10.127238037109375,-0.24306830763816833,0.6572367548942566,-0.2757684588432312
1790521819786241000,10.137240966796876,-0.10190985351800919,0.6166933178901672,-0.23795157670974731
1790521819796244200,10.147244140625,0.054678160697221756,0.38428908586502075,-0.11720065772533417
1790521819806247000,10.157246826171875,0.1898663341999054,-0.041308559477329254,0.04481274634599686
1790521819816249000,10.1672490234375,0.2973368763923645,-0.4944502115249634,0.20195868611335754
1790521819826252000,10.177251953125,0.3123363256454468,-0.7772230505943298,0.3231474459171295
1790521819836255000,10.1872548828125,0.22605709731578827,-0.8598366975784302,0.34464314579963684
1790521819846258000,10.1972578125,0.07348034530878067,-0.678729236125946,0.24280518293380737
1790521819856261000,10.20726123046875,-0.13485021889209747,-0.2913628816604614,0.05781882628798485
1790521819866264000,10.21726416015625,-0.32866016030311584,0.20527778565883636,-0.1292024552822113
1790521819876266000,10.227265869140625,-0.4307585656642914,0.5799422264099121,-0.24552161991596222
1790521819886269200,10.237269287109376,-0.43903329968452454,0.6959913372993469,-0.28166496753692627
1790521819896272000,10.24727197265625,-0.38050737977027893,0.6313502788543701,-0.25657081604003906
1790521819906275000,10.257275146484375,-0.2733742892742157,0.43865537643432617,-0.1800592541694641
1790521819916278000,10.267278076171875,-0.1300155222415924,0.16029725968837738,-0.0800439715385437
1790521819926280000,10.277280029296875,-0.013498764485120773,-0.0699567124247551,0.012762400321662426
1790521819936283100,10.287283203125,0.05191672593355179,-0.17931382358074188,0.0628276988863945
1790521819946286000,10.2972861328125,0.09741763025522232,-0.16683904826641083,0.06636650860309601
1790521819956289000,10.3072890625,0.1380351036787033,-0.09795133024454117,0.047619983553886414
1790521819966292200,10.317292236328125,0.16814692318439484,-0.05910805985331535,0.027882497757673264
1790521819976294100,10.327294189453125,0.16776131093502045,-0.09412037581205368,0.013495569117367268
1790521819986297000,10.337297119140626,0.13708168268203735,-0.15164625644683838,0.009378055110573769
1790521819996300000,10.347300048828124,0.09431025385856628,-0.16566966474056244,0.016171513125300407
1790521820006303000,10.357302978515625,0.06267110258340836,-0.11789467930793762,0.014723019674420357
1790521820016306000,10.367305908203125,0.029936326667666435,-0.0021638183388859034,-0.013758422806859016
1790521820026308000,10.37730810546875,-0.013344300910830498,0.1133345514535904,-0.050091661512851715
1790521820036311000,10.38731103515625,-0.04945729672908783,0.146033376455307,-0.06120903044939041
1790521820046314000,10.39731396484375,-0.062497999519109726,0.08858339488506317,-0.033298835158348083
1790521820056317200,10.407317138671875,-0.05717087909579277,-0.011256649158895016,0.01137063279747963
1790521820066320000,10.41731982421875,-0.051003530621528625,-0.08252124488353729,0.05866650864481926
1790521820076322000,10.427322021484375,-0.047146208584308624,-0.10291572660207748,0.09218265861272812
1790521820086325000,10.437324951171876,-0.04728655517101288,-0.07122491300106049,0.11538518220186234
1790521820096328000,10.447327880859374,-0.05402728170156479,-0.02412903867661953,0.1313556283712387
1790521820106331100,10.4573310546875,-0.044080641120672226,-0.005327120888978243,0.15896807610988617
1790521820116334000,10.467333984375,-0.014638597145676613,-0.03945766016840935,0.200504869222641
1790521820126336000,10.4773359375,0.0052142031490802765,-0.10710088908672333,0.24834562838077545
1790521820136339000,10.4873388671875,-0.007799333427101374,-0.1903933733701706,0.27866944670677185
1790521820146342100,10.497342041015624,-0.0640527531504631,-0.23138394951820374,0.2556866407394409
1790521820156345000,10.507344970703125,-0.10915631800889969,-0.15758296847343445,0.16461318731307983
1790521820166348000,10.51734814453125,-0.09929116815328598,0.04728016257286072,0.029999177902936935
1790521820176351000,10.52735107421875,-0.024993499740958214,0.318557471036911,-0.11689173430204391
1790521820186353000,10.537352783203126,0.065339595079422,0.513306200504303,-0.23119381070137024
1790521820196356000,10.547356201171874,0.11748161911964417,0.539167582988739,-0.267189085483551
1790521820206359000,10.557359130859375,0.18281614780426025,0.34539201855659485,-0.1953577846288681
1790521820216362000,10.567362060546875,0.29107630252838135,-0.010437460616230965,-0.037402231246232986
1790521820226365200,10.577365234375,0.3828994333744049,-0.3943033814430237,0.13319267332553864
1790521820236367000,10.5873671875,0.37813159823417664,-0.6376875042915344,0.22250550985336304
1790521820246370000,10.5973701171875,0.28462639451026917,-0.6550279259681702,0.18954889476299286
1790521820256373000,10.607373046875,0.1538287103176117,-0.44736018776893616,0.02370799332857132
1790521820266376000,10.6173759765625,0.01697232574224472,-0.07930654287338257,-0.18298819661140442
1790521820276379100,10.627379150390626,-0.10015855729579926,0.24063657224178314,-0.3161957859992981
1790521820286381000,10.637381103515626,-0.17472600936889648,0.35394370555877686,-0.32764363288879395
1790521820296384000,10.647384033203124,-0.19216598570346832,0.3385325074195862,-0.24655625224113464
1790521820306387000,10.657386962890625,-0.15506255626678467,0.2501634955406189,-0.12466123700141907
1790521820316390100,10.66739013671875,-0.09269851446151733,0.10121370106935501,-0.0032890038564801216
1790521820326393000,10.67739306640625,-0.03652738407254219,-0.0679076761007309,0.10137216001749039
1790521820336395000,10.68739501953125,0.0014855111949145794,-0.19566243886947632,0.16466377675533295
1790521820346398200,10.697398193359374,0.02942739799618721,-0.22075048089027405,0.1759531944990158
1790521820356401000,10.70740087890625,0.06460988521575928,-0.15445588529109955,0.14921718835830688
1790521820366404000,10.717404052734375,0.10703989863395691,-0.0748920813202858,0.10360602289438248
1790521820376407000,10.727406982421876,0.12379437685012817,-0.03158295899629593,0.05513941869139671
1790521820386410000,10.737409912109374,0.12051283568143845,-0.012455604039132595,0.011788749136030674
1790521820396412200,10.747412109375,0.12432834506034851,-0.004596349783241749,-0.023265374824404716
1790521820406415000,10.7574150390625,0.11963053047657013,-0.02701936662197113,-0.03754684329032898
1790521820416418000,10.76741796875,0.08202163130044937,-0.052548959851264954,-0.04434962198138237
1790521820426421800,10.777421875,0.014697985723614693,-0.03431376442313194,-0.04246543347835541
1790521820436424400,10.787424560546874,-0.03678331524133682,0.025770343840122223,-0.03970080614089966
1790521820446426600,10.797426513671875,-0.04453684017062187,0.08488266915082932,-0.02400919608771801
1790521820456429600,10.8074296875,-0.024174312129616737,0.10223902016878128,-0.002163019496947527
1790521820466432500,10.8174326171875,-0.015615178272128105,0.029473204165697098,0.021280255168676376
1790521820476435700,10.827435791015626,-0.009269664995372295,-0.09649484604597092,0.044376786798238754
1790521820486438400,10.8374384765625,0.0037553233560174704,-0.20262128114700317,0.06381146609783173
1790521820496440600,10.847440673828125,0.009977266192436218,-0.22122852504253387,0.06065509095788002
1790521820506443500,10.857443603515625,-0.017006680369377136,-0.13954778015613556,0.029945116490125656
1790521820516446500,10.867446533203125,-0.08122667670249939,0.003320429241284728,-0.0194285586476326
1790521820526449700,10.87744970703125,-0.1385674625635147,0.14320163428783417,-0.0689803957939148
1790521820536452600,10.88745263671875,-0.1596304029226303,0.22037072479724884,-0.09459521621465683
1790521820546455600,10.89745556640625,-0.13026079535484314,0.21807055175304413,-0.08001653850078583
1790521820556457500,10.90745751953125,-0.07552218437194824,0.1491844207048416,-0.03149054944515228
1790521820566460700,10.917460693359375,-0.018748121336102486,0.05054280161857605,0.02642122097313404
1790521820576463600,10.927463623046876,0.015371233224868774,0.011832690797746181,0.05698924884200096
1790521820586466600,10.937466552734374,0.023313844576478004,0.05144268274307251,0.05355909839272499
1790521820596469800,10.9474697265625,0.027222033590078354,0.12840192019939423,0.027838556095957756
1790521820606471400,10.957471435546875,0.036610741168260574,0.1999189704656601,-0.018686069175601006
1790521820616474600,10.967474609375,0.036855220794677734,0.2289983034133911,-0.07062330096960068
1790521820626477600,10.9774775390625,0.029756831005215645,0.21962504088878632,-0.12053839862346649
1790521820636480500,10.98748046875,0.0059724049642682076,0.21799038350582123,-0.16349652409553528
1790521820646483700,10.997483642578125,-0.05109966918826103,0.26439782977104187,-0.19296786189079285
1790521820656485600,11.007485595703125,-0.10319695621728897,0.2543039321899414,-0.21103447675704956
1790521820666488600,11.017488525390625,-0.17107561230659485,-0.15128113329410553,-0.09343088418245316
1790521820676491500,11.027491455078126,-0.07256341725587845,0.21271440386772156,-0.11470741033554077
1790521820686494500,11.037494384765624,0.07918509840965271,0.12488733977079391,-0.1641007959842682
1790521820696497700,11.04749755859375,0.1535903513431549,0.11466612666845322,-0.19030629098415375
1790521820706499600,11.05749951171875,0.2065579742193222,0.18085873126983643,-0.19223707914352417
1790521820716502800,11.067502685546875,0.2349134385585785,0.04231603071093559,-0.12889006733894348
1790521820726505500,11.07750537109375,0.21560420095920563,-0.09691855311393738,-0.0626082569360733
1790521820736508700,11.0875087890625,0.109693743288517,-0.1987149566411972,-0.0012154667638242245
1790521820746511600,11.09751171875,-0.011090467683970928,-0.15929165482521057,0.07423188537359238
1790521820756514600,11.1075146484375,-0.060918211936950684,-0.05030817911028862,0.10994967073202133
1790521820766516700,11.117516845703125,-0.06665173172950745,-0.06531322747468948,0.14708292484283447
1790521820776519400,11.12751953125,-0.06618088483810425,-0.09701097011566162,0.16890700161457062
1790521820786522600,11.137522705078124,-0.0855170339345932,-0.09397230297327042,0.15386945009231567
1790521820796525600,11.147525634765625,-0.10821515321731567,-0.09953564405441284,0.13999998569488525
1790521820806528500,11.157528564453125,-0.14734071493148804,-0.09661122411489487,0.1259038746356964
1790521820816530400,11.167530517578125,-0.1375778317451477,-0.08207090198993683,0.12094852328300476
1790521820826533600,11.17753369140625,-0.10427048057317734,-0.04758189991116524,0.10909905284643173
1790521820836536600,11.18753662109375,-0.07159482687711716,0.05991872772574425,0.07908656448125839
1790521820846539500,11.19753955078125,-0.022224612534046173,0.048336371779441833,0.05823427811264992
1790521820856542500,11.20754248046875,-0.008423046208918095,-0.026069683954119682,-0.005621666554361582
1790521820866545700,11.217545654296876,-0.03116084821522236,0.05573490262031555,-0.10633682459592819
1790521820876547600,11.227547607421876,-0.10195725411176682,0.008892028592526913,-0.17796440422534943
1790521820886550800,11.23755078125,-0.10050849616527557,0.0893852710723877,-0.23807434737682343
1790521820896553500,11.247553466796875,-0.02996961586177349,0.1930789053440094,-0.2886064946651459
1790521820906556700,11.257556640625,0.030966971069574356,0.21321506798267365,-0.30185893177986145
1790521820916559600,11.2675595703125,0.045048702508211136,0.17824430763721466,-0.28327885270118713
1790521820926561500,11.2775615234375,0.033241044729948044,0.17093180119991302,-0.2668628394603729
1790521820936564700,11.287564697265625,0.012287825345993042,0.15069469809532166,-0.24912753701210022
1790521820946567400,11.2975673828125,-0.01671852543950081,0.12146251648664474,-0.20660856366157532
1790521820956570600,11.307570556640625,-0.02167067490518093,0.09439707547426224,-0.16057316958904266
1790521820966573600,11.317573486328126,0.008297344669699669,0.0694776102900505,-0.12618643045425415
1790521820976575500,11.327575439453126,0.04391392692923546,0.0011323761427775025,-0.10787133872509003
1790521820986578700,11.33757861328125,0.07859121263027191,-0.08294601738452911,-0.09699179232120514
1790521820996581600,11.34758154296875,0.11321151256561279,-0.1456453502178192,-0.10092262178659439
1790521821006584600,11.35758447265625,0.14246366918087006,-0.16524621844291687,-0.11378461867570877
1790521821016587500,11.36758740234375,0.17301039397716522,-0.17475317418575287,-0.13461905717849731
1790521821026590500,11.377590576171874,0.2180287390947342,-0.1987762153148651,-0.15969166159629822
1790521821036592400,11.38759228515625,0.25509488582611084,-0.2595197260379791,-0.18559356033802032
1790521821046595600,11.397595703125,0.2718016803264618,-0.3088880777359009,-0.21675041317939758
1790521821056598800,11.407598876953125,0.2711702585220337,-0.3064004182815552,-0.25170814990997314
1790521821066601500,11.4176015625,0.26185503602027893,-0.206686332821846,-0.28351932764053345
1790521821076604700,11.427604736328124,0.24056094884872437,-0.15422126650810242,-0.29634058475494385
1790521821086606600,11.437606689453125,0.2233840823173523,-0.0553777702152729,-0.3064377009868622
1790521821096609500,11.447609619140625,0.22157606482505798,0.07007628679275513,-0.3051793575286865
1790521821106612700,11.45761279296875,0.23040977120399475,0.09503969550132751,-0.2847409248352051
1790521821116615400,11.467615478515626,0.21995367109775543,0.06452972441911697,-0.25672924518585205
1790521821126618600,11.47761865234375,0.19640760123729706,0.035114310681819916,-0.23360583186149597
1790521821136620500,11.48762060546875,0.17511162161827087,0.005864280741661787,-0.2308148443698883
1790521821146623500,11.49762353515625,0.15020868182182312,-0.018967831507325172,-0.2518969476222992
1790521821156626700,11.507626708984375,0.12125372141599655,-0.030847927555441856,-0.2991808354854584
1790521821166629600,11.517629638671876,0.11942386627197266,-0.008469651453197002,-0.34852495789527893
1790521821176632600,11.527632568359374,0.1447119116783142,0.028789836913347244,-0.39452892541885376
1790521821186635500,11.537635498046875,0.1727917492389679,0.02720791846513748,-0.4391914904117584
1790521821196637700,11.5476376953125,0.17899131774902344,0.044555749744176865,-0.48799070715904236
1790521821206640400,11.557640380859375,0.14297552406787872,0.028244953602552414,-0.5333832502365112
1790521821216643600,11.5676435546875,0.065853051841259,-0.09541253745555878,-0.5584678053855896
1790521821226646800,11.577646728515624,-0.02955150045454502,-0.21545132994651794,-0.5605176687240601
1790521821236649500,11.5876494140625,-0.09378321468830109,-0.19815276563167572,-0.5132063031196594
1790521821246651600,11.597651611328125,-0.1077464371919632,-0.12341088056564331,-0.3997684419155121
1790521821256654600,11.607654541015625,-0.08623288571834564,-0.016099341213703156,-0.25177446007728577
1790521821266657500,11.617657470703126,-0.040532778948545456,0.03190520405769348,-0.13312609493732452
1790521821276660700,11.62766064453125,0.001059139147400856,-0.0009784454014152288,-0.05820551514625549
1790521821286663400,11.637663330078125,0.0355508029460907,-0.05739591643214226,-0.002379800658673048
1790521821296666600,11.64766650390625,0.06910023838281631,-0.08193108439445496,0.034024011343717575
1790521821306668500,11.65766845703125,0.10011275112628937,-0.12524819374084473,0.06824909150600433
1790521821316671500,11.66767138671875,0.1098543256521225,-0.15249979496002197,0.10049545019865036
1790521821326674700,11.6776748046875,0.0963054969906807,-0.14712686836719513,0.11461712419986725
1790521821336677600,11.687677734375,0.0619770847260952,-0.1387522965669632,0.13204938173294067
1790521821346680600,11.6976806640625,0.022480808198451996,-0.1655343621969223,0.1407800167798996
1790521821356682500,11.7076826171875,-0.01555286068469286,-0.22461606562137604,0.11665657162666321
1790521821366685700,11.717685791015626,-0.07965674251317978,-0.27242138981819153,0.0549900159239769
1790521821376688400,11.7276884765625,-0.16125626862049103,-0.28024551272392273,-0.026003902778029442
1790521821386691600,11.737691650390625,-0.22005008161067963,-0.23663118481636047,-0.09575928002595901
1790521821396694800,11.74769482421875,-0.2094442993402481,-0.35078704357147217,0.05512397363781929
1790521821406697500,11.757697509765626,-0.10982423275709152,-0.04424016550183296,0.1951335370540619
1790521821416699600,11.76769970703125,-0.1006978452205658,0.35841140151023865,0.11990802735090256
1790521821426702600,11.77770263671875,-0.0864267647266388,0.3636578321456909,-0.0402667298913002
1790521821436705300,11.787705322265625,-0.08422593027353287,0.3176906108856201,-0.22033077478408813
1790521821446708500,11.79770849609375,-0.09368334710597992,0.22416305541992188,-0.3270266056060791
1790521821456711400,11.80771142578125,-0.08076301962137222,0.23339411616325378,-0.303618460893631
1790521821466713300,11.81771337890625,-0.0854850709438324,0.3329976797103882,-0.1714865267276764
1790521821476716500,11.827716552734374,-0.14874820411205292,0.35413411259651184,0.011051585897803307
1790521821486719500,11.837719482421875,-0.22397424280643463,0.3728260397911072,0.1627681404352188
1790521821496722400,11.847722412109375,-0.29247206449508667,0.3877708911895752,0.24160170555114746
1790521821506725400,11.857725341796876,-0.3411027193069458,0.3822088837623596,0.25435957312583923
1790521821516728300,11.867728271484374,-0.3636764883995056,0.33757057785987854,0.2194948047399521
1790521821526730200,11.877730224609374,-0.3775009512901306,0.232444167137146,0.18599356710910797
1790521821536733400,11.8877333984375,-0.37520715594291687,0.07376929372549057,0.18555867671966553
1790521821546736400,11.897736328125,-0.3433254063129425,-0.047933436930179596,0.22430899739265442
1790521821556739300,11.9077392578125,-0.27750056982040405,-0.10420683026313782,0.2865915596485138
1790521821566742500,11.917742431640624,-0.2109612375497818,-0.12543036043643951,0.36549702286720276
1790521821576744200,11.927744140625,-0.15783756971359253,-0.12029498815536499,0.4226798713207245
1790521821586747400,11.937747314453125,-0.13191382586956024,-0.10115192085504532,0.43906259536743164
1790521821596750600,11.94775048828125,-0.14359977841377258,-0.06573693454265594,0.40067657828330994
1790521821606753300,11.957753173828126,-0.13830088078975677,-0.028192488476634026,0.3315667510032654
1790521821616756500,11.967756591796874,-0.10881729423999786,0.020213657990098,0.2529353201389313
1790521821626759400,11.977759521484375,-0.07863302528858185,0.04525429755449295,0.17271505296230316
1790521821636761300,11.98776123046875,-0.06435421854257584,0.06282263994216919,0.08333244174718857
1790521821646764500,11.9977646484375,-0.06731752306222916,0.10149679332971573,0.005372394807636738
1790521821656767500,12.007767578125,-0.091268390417099,0.15534085035324097,-0.06066547706723213
1790521821666770400,12.0177705078125,-0.06926669180393219,0.20410147309303284,-0.11343281716108322
1790521821676773400,12.0277734375,-0.06251344829797745,0.20423303544521332,-0.13986442983150482
1790521821686775600,12.037775634765625,-0.04128086194396019,0.17098452150821686,-0.135558620095253
1790521821696778500,12.047778564453125,-0.003596598980948329,0.14337500929832458,-0.10680820792913437
1790521821706781400,12.057781494140626,0.02713761106133461,0.12893614172935486,-0.056462742388248444
1790521821716784400,12.067784423828124,0.04722290486097336,0.11009906977415085,0.007480553351342678
1790521821726787300,12.077787353515625,0.038058169186115265,0.12643755972385406,0.06370121240615845
1790521821736790500,12.08779052734375,-0.008037153631448746,0.14808666706085205,0.09112777560949326
1790521821746792200,12.097792236328125,-0.0680789202451706,0.12033812701702118,0.10593335330486298
1790521821756795400,12.10779541015625,-0.09390785545110703,0.07575628161430359,0.11493297666311264
1790521821766798600,12.117798583984374,-0.09234937280416489,-0.02484196610748768,0.1371658444404602
1790521821776801300,12.12780126953125,-0.0806913822889328,-0.06622349470853806,0.1794254183769226
1790521821786804500,12.137804443359375,-0.05970993638038635,-0.11138857901096344,0.2226429283618927
1790521821796806400,12.147806396484375,-0.06126495450735092,-0.1736903041601181,0.2717878520488739
1790521821806809300,12.157809326171876,-0.06733962893486023,-0.21075138449668884,0.32221531867980957
